time,acc_x,acc_y,acc_z,vel_x,vel_y,vel_z,mag_x,mag_y,mag_z
18:26.4,-0.057720209,0.069739953,9.947764536,0.216509114,0.105944068,0.108880614,-0.070671378,6.174377224,6.254098361
18:26.4,0.009033869,0.117021277,9.966244047,0.016305763,0.090809201,0,-0.074204947,6.170818505,6.254098361
18:26.4,-0.038701651,0.088652482,9.976815023,0.123107984,0,0.093326241,-0.074204947,6.167259786,6.254098361
18:26.4,-0.057814771,0.079196217,9.977100717,0.075872348,-0.105944068,0.108880614,-0.074204947,6.174377224,6.25
18:26.4,0.009506682,0.069739953,9.9569022,0.122955107,-0.015134867,0.093326241,-0.077738516,6.174377224,6.258196721
18:26.4,-0.067607738,0.098108747,9.947579723,-0.045248229,0.090809201,0.202206855,-0.074204947,6.167259786,6.254098361
18:26.4,-0.058287585,0.126477541,9.957012766,0.106343589,-0.136213801,0.093326241,-0.067137809,6.167259786,6.254098361
18:26.4,-0.029192372,0.098108747,9.907955839,0.031847138,0.105944068,0.062217494,-0.081272085,6.170818505,6.258196721
18:26.4,-0.087099109,0.126477541,9.908251219,0.030929873,0.015134867,-0.031108747,-0.091872792,6.170818505,6.254098361
18:26.4,-0.038985339,0.117021277,9.956914306,0.077401122,0.0454046,-0.015554373,-0.077738516,6.163701068,6.245901639
18:26.5,-0.009984689,0.098108747,10.04510282,-0.045859739,0.030269734,0.186652481,-0.070671378,6.170818505,6.25
18:26.5,-0.048400055,0.098108747,9.937577714,0.215744727,0.030269734,0,-0.084805654,6.167259786,6.245901639
18:26.5,-0.029570623,0.135933806,9.897771439,0.107413731,-0.030269734,0.093326241,-0.091872792,6.170818505,6.245901639
18:26.5,-0.040214653,0.239952719,9.965507218,0.062318379,0.075674334,0.062217494,-0.074204947,6.167259786,6.254098361
18:26.5,-0.010268377,0.126477541,9.887863046,0.200509107,0.0454046,0.093326241,-0.070671378,6.163701068,6.254098361
18:26.5,-0.038701651,0.088652482,9.947385225,0.139413747,0.090809201,0.015554373,-0.081272085,6.167259786,6.258196721
18:26.5,-0.058098459,0.107565012,9.967009933,-0.030776996,0,0,-0.091872792,6.170818505,6.254098361
18:26.5,0.009506682,0.069739953,9.947092267,0.063235644,0.166483535,0.031108747,-0.077738516,6.170818505,6.258196721
18:26.5,-0.067418613,0.079196217,9.928147092,-0.047082759,-0.090809201,0.093326241,-0.077738516,6.167259786,6.254098361
18:26.5,-0.029192372,0.098108747,9.9864353,-0.077095368,-0.015134867,0.093326241,-0.074204947,6.170818505,6.25
18:26.6,-0.067607738,0.098108747,10.00643932,0.078777019,0.181618402,0.062217494,-0.070671378,6.167259786,6.254098361
18:26.6,-0.019493968,0.088652482,9.927573283,-0.000458632,-0.0454046,0.093326241,-0.081272085,6.167259786,6.262295082
18:26.6,-0.029570623,0.135933806,9.937011169,0.029706854,-0.105944068,0.186652481,-0.077738516,6.163701068,6.258196721
18:26.6,-0.029286935,0.107565012,9.947101953,0.107413731,-0.030269734,0.202206855,-0.084805654,6.170818505,6.258196721
18:26.6,-0.048116367,0.069739953,9.947668497,-0.109706893,-0.196753268,-0.062217494,-0.077738516,6.170818505,6.245901639
18:26.6,-0.057909334,0.088652482,9.967197167,0.139413747,0.090809201,-0.186652481,-0.081272085,6.170818505,6.254098361
18:26.6,-0.010173814,0.117021277,9.946816259,0.13803785,-0.0454046,0.108880614,-0.074204947,6.174377224,6.258196721
18:26.6,-0.048683743,0.126477541,9.96672666,-0.016152885,-0.075674334,0.108880614,-0.081272085,6.170818505,6.258196721
18:26.6,-0.077306142,0.107565012,9.986821875,0.291005565,-0.136213801,0.04666312,-0.070671378,6.181494662,6.25
18:26.6,-0.106306792,0.126477541,9.957492958,0.124483881,0.136213801,0.077771867,-0.074204947,6.170818505,6.258196721
18:26.7,-0.038796214,0.098108747,9.957101541,0.031694261,0.090809201,0,-0.070671378,6.170818505,6.254098361
18:26.7,-0.019493968,0.088652482,9.947193148,0.106649344,-0.105944068,0,-0.074204947,6.174377224,6.254098361
18:26.7,-0.000569973,0.117021277,9.936910288,0.137884972,-0.060539467,0.139989361,-0.077738516,6.174377224,6.258196721
18:26.7,-0.067513175,0.088652482,10.00653294,0.138802237,0.030269734,0.062217494,-0.081272085,6.170818505,6.25
18:26.7,-0.029192372,0.098108747,9.966815435,0.092636743,0.030269734,0.015554373,-0.077738516,6.163701068,6.245901639
18:26.7,-0.009984689,0.098108747,9.956813425,0.016305763,0.090809201,-0.062217494,-0.074204947,6.170818505,6.258196721
18:26.7,-0.048872868,0.145390071,9.888059966,0.000917265,0.090809201,0.062217494,-0.070671378,6.167259786,6.258196721
18:26.7,-0.096797513,0.135933806,9.94749337,0.07633098,-0.060539467,-0.031108747,-0.074204947,6.174377224,6.262295082
18:26.7,-0.01958853,0.098108747,9.917669733,0.216967747,0.151348668,0.279978722,-0.077738516,6.174377224,6.245901639
18:26.7,-0.048683743,0.126477541,9.92748693,0.091872356,-0.0454046,0.139989361,-0.084805654,6.174377224,6.25
18:26.8,-0.039174464,0.135933806,10.00577674,0.246521723,0.030269734,0.233315601,-0.081272085,6.167259786,6.254098361
18:26.8,-0.029192372,0.098108747,9.966815435,0.092330988,0,0.062217494,-0.067137809,6.174377224,6.25
18:26.8,-0.010079252,0.107565012,9.956719808,0.184203344,-0.0454046,0.233315601,-0.077738516,6.177935943,6.262295082
18:26.8,-0.048400055,0.098108747,9.947387646,0.107413731,-0.030269734,0.108880614,-0.074204947,6.163701068,6.266393443
18:26.8,-0.000191722,0.079196217,9.956904621,0.123107984,0,0.279978722,-0.074204947,6.167259786,6.258196721
18:26.8,-0.029192372,0.098108747,9.957005502,0.261757344,0.015134867,-0.04666312,-0.070671378,6.167259786,6.262295082
18:26.8,-0.010173814,0.117021277,9.956626191,-0.045248229,0.090809201,0.015554373,-0.077738516,6.177935943,6.258196721
18:26.8,0.018732273,0.107565012,9.976051558,-0.030776996,0,-0.077771867,-0.074204947,6.163701068,6.262295082
18:26.8,0.018543148,0.126477541,9.926814661,0.201273494,0.121078934,0.077771867,-0.081272085,6.170818505,6.262295082
18:26.8,0.008939306,0.126477541,9.985770295,0.184814854,0.015134867,0.031108747,-0.077738516,6.163701068,6.254098361
18:26.8,-0.058003897,0.098108747,9.92786382,-0.029859731,0.090809201,0.202206855,-0.09540636,6.170818505,6.262295082
18:26.9,-0.048872868,0.145390071,9.888059966,0.184509099,-0.015134867,0.093326241,-0.070671378,6.160142349,6.245901639
18:26.9,-0.000286285,0.088652482,9.907761341,-0.016764395,-0.136213801,0.139989361,-0.077738516,6.174377224,6.245901639
18:26.9,-0.048400055,0.098108747,9.947387646,-0.092483866,-0.015134867,0.171098108,-0.074204947,6.167259786,6.254098361
18:26.9,-0.038890776,0.107565012,9.966817856,0.168814846,-0.0454046,0.031108747,-0.081272085,6.160142349,6.258196721
18:26.9,-0.077117017,0.088652482,9.928149514,0.046624126,0.0454046,0.264424348,-0.070671378,6.163701068,6.262295082
18:26.9,-0.039269027,0.145390071,9.956633455,0.107566609,-0.015134867,0,-0.077738516,6.174377224,6.254098361
18:26.9,-0.04821093,0.079196217,9.986814611,0.077859755,0.090809201,0.139989361,-0.077738516,6.174377224,6.266393443
18:26.9,-0.07721158,0.098108747,9.879006234,0.031388506,0.060539467,0.04666312,-0.070671378,6.167259786,6.258196721
18:26.9,-0.038985339,0.117021277,9.947104374,-0.030624119,0.015134867,0.062217494,-0.070671378,6.170818505,6.254098361
18:26.9,-0.010173814,0.117021277,9.927196394,0.214674585,-0.075674334,-0.202206855,-0.077738516,6.167259786,6.258196721
18:27.0,-0.029192372,0.098108747,9.9864353,0.000305755,0.030269734,0.077771867,-0.070671378,6.170818505,6.254098361
18:27.0,-0.019966781,0.135933806,9.985964793,-0.075413716,0.151348668,0.186652481,-0.074204947,6.170818505,6.25
18:27.0,-0.04821093,0.079196217,10.00643448,-0.046165494,0,0.031108747,-0.074204947,6.177935943,6.254098361
18:27.0,0.009128432,0.107565012,9.936907866,-0.046624126,-0.0454046,0.202206855,-0.070671378,6.163701068,6.254098361
18:27.0,-0.058003897,0.098108747,9.918053887,0.124178126,0.105944068,0.077771867,-0.077738516,6.163701068,6.258196721
18:27.0,-0.038890776,0.107565012,9.957007923,-0.170649375,-0.136213801,0.186652481,-0.067137809,6.170818505,6.254098361
18:27.0,-0.058193022,0.117021277,9.917866653,-0.013859724,0.151348668,-0.062217494,-0.074204947,6.170818505,6.25
18:27.0,-0.029381497,0.117021277,9.88814874,-0.091413723,0.090809201,-0.015554373,-0.074204947,6.170818505,6.25
18:27.0,-0.009890126,0.088652482,9.90785738,0.169732111,0.0454046,0.155543734,-0.088339223,6.167259786,6.254098361
18:27.0,-0.038796214,0.098108747,9.966911473,-0.000917265,-0.090809201,0.015554373,-0.074204947,6.174377224,6.245901639
18:27.1,-0.029286935,0.107565012,9.927482087,0.168814846,-0.0454046,0.217761228,-0.070671378,6.163701068,6.245901639
18:27.1,-0.019872218,0.126477541,9.897769017,0.124025249,0.090809201,0.108880614,-0.070671378,6.163701068,6.254098361
18:27.1,0.008939306,0.126477541,9.946530565,-0.046777004,-0.060539467,0.031108747,-0.088339223,6.167259786,6.266393443
18:27.1,-0.038890776,0.107565012,9.927578126,0.122649352,-0.0454046,0.093326241,-0.070671378,6.170818505,6.258196721
18:27.1,-0.028814121,0.060283688,9.937760105,0.108483873,0.075674334,0.015554373,-0.070671378,6.174377224,6.254098361
18:27.1,-0.000759098,0.135933806,9.887673391,0.091566601,-0.075674334,0.202206855,-0.070671378,6.170818505,6.254098361
18:27.1,-0.019777656,0.117021277,9.976342095,-0.137884972,0.060539467,-0.093326241,-0.077738516,6.160142349,6.25
18:27.1,-0.048494618,0.107565012,9.966913894,-0.014318356,0.105944068,-0.062217494,-0.06360424,6.170818505,6.254098361
18:27.1,-0.038985339,0.117021277,9.956914306,0.09278962,0.0454046,0.031108747,-0.070671378,6.174377224,6.245901639
18:27.1,0.018921398,0.088652482,9.96642886,0.123107984,0,0.062217494,-0.067137809,6.163701068,6.262295082
18:27.2,-0.058098459,0.107565012,9.927770203,0.200661984,0.060539467,0.04666312,-0.070671378,6.167259786,6.25
18:27.2,-0.019304843,0.069739953,9.947380382,0.169120601,-0.015134867,0.062217494,-0.074204947,6.163701068,6.245901639
18:27.2,-0.009984689,0.098108747,9.97643329,-0.046777004,-0.060539467,0.077771867,-0.077738516,6.167259786,6.258196721
18:27.2,0.009412119,0.079196217,9.956808582,0.124025249,0.090809201,0.04666312,-0.088339223,6.174377224,6.254098361
18:27.2,-0.010079252,0.107565012,9.976339673,0.108330996,0.060539467,0.015554373,-0.070671378,6.177935943,6.254098361
18:27.2,-0.019777656,0.117021277,9.976342095,0.183591834,-0.105944068,-0.062217494,-0.060070671,6.170818505,6.254098361
18:27.2,-0.04821093,0.079196217,10.01624441,0.075872348,-0.105944068,0.124434987,-0.074204947,6.167259786,6.25
18:27.2,-0.009701001,0.069739953,9.976714141,0.093248253,0.090809201,0.031108747,-0.088339223,6.170818505,6.245901639
18:27.2,-0.029192372,0.098108747,9.917765772,0.107872364,0.015134867,0.124434987,-0.077738516,6.163701068,6.25
18:27.2,0.037939956,0.107565012,9.916999886,-0.031235628,-0.0454046,-0.031108747,-0.067137809,6.163701068,6.245901639
18:27.2,-0.029003247,0.079196217,9.917953006,0.121884965,-0.121078934,0.139989361,-0.067137809,6.163701068,6.254098361
18:27.3,-0.038796214,0.098108747,9.937481675,0.062318379,0.075674334,0.062217494,-0.091872792,6.174377224,6.245901639
18:27.3,-0.038985339,0.117021277,9.947104374,-0.046318372,-0.015134867,0.217761228,-0.067137809,6.167259786,6.258196721
18:27.3,-0.019966781,0.135933806,9.927105198,0.028942467,-0.181618402,0.124434987,-0.074204947,6.170818505,6.245901639
18:27.3,-0.057720209,0.069739953,9.928144671,0.246827478,0.060539467,0.077771867,-0.067137809,6.174377224,6.241803279
18:27.3,-0.009795564,0.079196217,9.937380794,0.106802221,-0.090809201,-0.062217494,-0.077738516,6.174377224,6.258196721
18:27.3,-0.039079901,0.126477541,9.966630622,0.307617083,-0.015134867,0.124434987,-0.070671378,6.163701068,6.25
18:27.3,-0.029854311,0.1643026,9.926920385,-0.091260846,0.105944068,0.108880614,-0.074204947,6.167259786,6.25
18:27.3,-0.048683743,0.126477541,9.898057133,0.030471241,-0.030269734,-0.155543734,-0.077738516,6.174377224,6.25
18:27.3,-0.038796214,0.098108747,9.976721406,0.062471257,0.090809201,0.031108747,-0.067137809,6.163701068,6.254098361
18:27.3,-0.009701001,0.069739953,9.966904209,-0.000152877,-0.015134867,0.139989361,-0.074204947,6.167259786,6.25
18:27.4,-0.029286935,0.107565012,9.93729202,-0.138955115,-0.0454046,-0.124434987,-0.074204947,6.167259786,6.25
18:27.4,-0.058193022,0.117021277,9.976726248,0.046471249,0.030269734,0.186652481,-0.074204947,6.174377224,6.258196721
18:27.4,-0.038796214,0.098108747,9.927671743,-0.091719478,0.060539467,0.233315601,-0.074204947,6.167259786,6.254098361
18:27.4,-0.048683743,0.126477541,9.956916728,0.123566616,0.0454046,0.279978722,-0.074204947,6.170818505,6.254098361
18:27.4,-0.048400055,0.098108747,9.947387646,0.076178103,-0.075674334,0.124434987,-0.070671378,6.163701068,6.258196721
18:27.4,-0.067891426,0.126477541,9.908059142,0.046012617,-0.015134867,0.155543734,-0.070671378,6.170818505,6.258196721
18:27.4,-0.057720209,0.069739953,9.957574468,0.200356229,0.030269734,0.077771867,-0.060070671,6.174377224,6.262295082
18:27.4,-0.086815421,0.098108747,9.957581733,-0.000305755,-0.030269734,-0.04666312,-0.070671378,6.170818505,6.254098361
18:27.4,-0.009890126,0.088652482,9.937287177,0.045553984,-0.060539467,0.202206855,-0.067137809,6.170818505,6.245901639
18:27.4,-0.038701651,0.088652482,9.96700509,0.015694253,0.030269734,0.202206855,-0.084805654,6.167259786,6.258196721
18:27.5,-0.029286935,0.107565012,9.917672155,0.140178134,0.166483535,0.186652481,-0.070671378,6.167259786,6.262295082
18:27.5,-0.029286935,0.107565012,9.927482087,-0.076483858,0.0454046,0.155543734,-0.06360424,6.167259786,6.258196721
18:27.5,-0.029286935,0.107565012,9.947101953,0.028942467,-0.181618402,0.202206855,-0.067137809,6.163701068,6.25
18:27.5,-0.019493968,0.088652482,9.868713688,-0.045248229,0.090809201,0.108880614,-0.060070671,6.174377224,6.25
18:27.5,-0.048400055,0.098108747,9.937577714,-0.030318364,0.0454046,0.186652481,-0.067137809,6.167259786,6.25
18:27.5,-0.067418613,0.079196217,9.947766957,0.047388514,0.121078934,0.139989361,-0.074204947,6.163701068,6.25
18:27.5,-0.096419263,0.098108747,9.947867838,0.031694261,0.090809201,0.077771867,-0.070671378,6.177935943,6.25
18:27.5,-0.038607088,0.079196217,9.947478842,0.108789628,0.105944068,0.062217494,-0.067137809,6.170818505,6.262295082
18:27.5,-0.029286935,0.107565012,9.947101953,0.214215953,-0.121078934,0.077771867,-0.070671378,6.163701068,6.25
18:27.5,0.018921398,0.088652482,9.936999062,0.000764387,0.075674334,-0.062217494,-0.067137809,6.163701068,6.254098361
18:27.6,0.028241552,0.117021277,9.96605197,0.155260877,0.136213801,0.093326241,-0.077738516,6.167259786,6.25
18:27.6,0.009128432,0.107565012,9.985957529,0.014165478,-0.121078934,0.217761228,-0.067137809,6.167259786,6.25
18:27.6,0.038412769,0.060283688,9.897848106,0.061401115,-0.015134867,0.202206855,-0.074204947,6.160142349,6.25
18:27.6,-0.029097809,0.088652482,9.937479254,0.122343597,-0.075674334,0.108880614,-0.070671378,6.167259786,6.254098361
18:27.6,-0.038796214,0.098108747,9.976721406,0.108789628,0.105944068,0.04666312,-0.088339223,6.167259786,6.254098361
18:27.6,-0.028908684,0.069739953,9.927856555,-0.092942498,-0.060539467,0.124434987,-0.074204947,6.167259786,6.254098361
18:27.6,-0.086720859,0.088652482,9.898815754,-0.030471241,0.030269734,-0.139989361,-0.074204947,6.170818505,6.25
18:27.6,-0.038985339,0.117021277,9.937294441,-0.017375905,-0.196753268,0.108880614,-0.070671378,6.160142349,6.245901639
18:27.6,-0.000380847,0.098108747,9.917477657,0.123107984,0,0.171098108,-0.081272085,6.163701068,6.25
18:27.6,-0.01036294,0.135933806,9.92700916,0.091260846,-0.105944068,0,-0.067137809,6.167259786,6.245901639
18:27.6,-0.039079901,0.126477541,9.897961094,0.061553992,0,-0.031108747,-0.067137809,6.167259786,6.254098361
18:27.7,-0.010079252,0.107565012,9.946909876,0.045095352,-0.105944068,0.093326241,-0.070671378,6.160142349,6.245901639
18:27.7,-0.04858918,0.117021277,9.966820277,0.046318372,0.015134867,0.04666312,-0.070671378,6.160142349,6.254098361
18:27.7,-0.009984689,0.098108747,9.947003493,0.061248237,-0.030269734,0.139989361,-0.074204947,6.167259786,6.25
18:27.7,-0.02947606,0.126477541,9.937104786,0.062165502,0.060539467,-0.031108747,-0.074204947,6.167259786,6.25
18:27.7,-0.029097809,0.088652482,9.927669321,-0.07633098,0.060539467,0.124434987,-0.067137809,6.160142349,6.25
18:27.7,-0.067607738,0.098108747,9.937769791,0.152814838,-0.105944068,0.015554373,-0.070671378,6.167259786,6.245901639
18:27.7,-0.057814771,0.079196217,9.967290784,0.138802237,0.030269734,0.186652481,-0.077738516,6.15658363,6.258196721
18:27.7,-0.057814771,0.079196217,9.947670919,0.090802214,-0.151348668,0.031108747,-0.070671378,6.163701068,6.245901639
18:27.7,-0.067418613,0.079196217,9.898717294,0.292228585,-0.015134867,0.186652481,-0.067137809,6.167259786,6.245901639
18:27.7,-0.019872218,0.126477541,10.00567828,0.015388498,0,0.233315601,-0.070671378,6.163701068,6.25
18:27.8,-0.038985339,0.117021277,9.927484509,-0.123566616,-0.0454046,0.202206855,-0.067137809,6.167259786,6.245901639
18:27.8,-0.04821093,0.079196217,9.937764948,0.154190735,0.030269734,0.015554373,-0.074204947,6.170818505,6.241803279
18:27.8,-0.029097809,0.088652482,9.927669321,0.184509099,-0.015134867,0.202206855,-0.084805654,6.160142349,6.254098361
18:27.8,-0.01958853,0.098108747,9.966719396,0.045706862,-0.0454046,0.077771867,-0.070671378,6.170818505,6.254098361
18:27.8,-0.000759098,0.135933806,9.936723054,0.090496459,-0.181618402,0.031108747,-0.067137809,6.170818505,6.254098361
18:27.8,-0.010173814,0.117021277,9.887956663,0.107566609,-0.015134867,-0.062217494,-0.070671378,6.167259786,6.254098361
18:27.8,-0.029570623,0.135933806,9.966440967,0.169884988,0.060539467,0.124434987,-0.098939929,6.170818505,6.258196721
18:27.8,-0.02947606,0.126477541,9.878245191,0.029859731,-0.090809201,0.015554373,-0.074204947,6.170818505,6.25
18:27.8,-0.067891426,0.126477541,9.966918737,0.107107976,-0.060539467,0.124434987,-0.077738516,6.170818505,6.245901639
18:27.8,-0.01958853,0.098108747,9.966719396,0.322546949,-0.060539467,0.077771867,-0.070671378,6.170818505,6.245901639
18:27.9,-0.056585457,-0.043735225,9.899838277,0.030471241,-0.030269734,0.264424348,-0.067137809,6.167259786,6.25
18:27.9,-0.019493968,0.088652482,9.927573283,0.045706862,-0.0454046,0.171098108,-0.070671378,6.167259786,6.245901639
18:27.9,-0.076833329,0.060283688,9.928430365,-0.139719502,-0.121078934,0.015554373,-0.067137809,6.163701068,6.262295082
18:27.9,-0.048400055,0.098108747,9.888528051,0.215133217,-0.030269734,0.093326241,-0.06360424,6.160142349,6.254098361
18:27.9,-0.087004546,0.117021277,9.927964701,0.261298711,-0.030269734,-0.077771867,-0.074204947,6.163701068,6.245901639
18:27.9,-0.067418613,0.079196217,9.987006687,0.108178118,0.0454046,0.186652481,-0.070671378,6.167259786,6.241803279
18:27.9,-0.048116367,0.069739953,9.898618835,-0.029095344,0.166483535,0.093326241,-0.067137809,6.167259786,6.25
18:27.9,-0.01958853,0.098108747,9.986339261,0.075719471,-0.121078934,0.186652481,-0.070671378,6.163701068,6.254098361
18:27.9,-0.01958853,0.098108747,9.947099531,-0.045401107,0.075674334,0,-0.067137809,6.163701068,6.25
18:27.9,-0.048116367,0.069739953,9.898618835,-0.076483858,0.0454046,0.062217494,-0.06360424,6.163701068,6.25
18:28.0,-0.009701001,0.069739953,9.908044614,-0.230674593,0.015134867,-0.062217494,-0.074204947,6.163701068,6.245901639
18:28.0,-0.019683093,0.107565012,9.937195982,0.108330996,0.060539467,0,-0.081272085,6.167259786,6.258196721
18:28.0,-0.057909334,0.088652482,9.878907774,0.183133202,-0.151348668,-0.031108747,-0.067137809,6.163701068,6.245901639
18:28.0,-0.067702301,0.107565012,9.927866241,0.168967723,-0.030269734,0.093326241,-0.06360424,6.170818505,6.254098361
18:28.0,-0.019777656,0.117021277,9.99596196,0.031082751,0.030269734,0.077771867,-0.067137809,6.167259786,6.25
18:28.0,-0.038607088,0.079196217,9.986718572,0.109248261,0.151348668,0.124434987,-0.070671378,6.167259786,6.25
18:28.0,-0.038796214,0.098108747,9.996341271,0.06170687,0.015134867,0.186652481,-0.067137809,6.170818505,6.254098361
18:28.0,-0.048683743,0.126477541,9.937296863,0.060330973,-0.121078934,0.062217494,-0.077738516,6.174377224,6.25
18:28.0,-0.019872218,0.126477541,9.927198815,0.031235628,0.0454046,-0.04666312,-0.070671378,6.170818505,6.254098361
18:28.0,0.009222994,0.098108747,9.956621348,-0.186496506,-0.181618402,-0.015554373,-0.084805654,6.174377224,6.25
18:28.0,-0.048494618,0.107565012,9.947294029,0.061859747,0.030269734,-0.031108747,-0.077738516,6.167259786,6.25
18:28.1,-0.04821093,0.079196217,9.937764948,-0.154343613,-0.0454046,0.062217494,-0.081272085,6.170818505,6.245901639
18:28.1,-0.048305492,0.088652482,9.839572005,-0.000305755,-0.030269734,-0.093326241,-0.077738516,6.163701068,6.258196721
18:28.1,-0.067891426,0.126477541,9.917869074,0.013553969,-0.181618402,0.077771867,-0.074204947,6.170818505,6.25
18:28.1,-0.01921028,0.060283688,9.986713729,0.031388506,0.060539467,0.124434987,-0.070671378,6.167259786,6.241803279
18:28.1,-0.048305492,0.088652482,9.947481263,0.030776996,0,0.139989361,-0.070671378,6.163701068,6.254098361
18:28.1,-0.019683093,0.107565012,9.937195982,-0.000305755,-0.030269734,0.093326241,-0.074204947,6.170818505,6.245901639
18:28.1,-0.01958853,0.098108747,9.966719396,0.060942482,-0.060539467,0.062217494,-0.070671378,6.163701068,6.254098361
18:28.1,-0.019683093,0.107565012,9.956815847,0.199438965,-0.060539467,0.202206855,-0.06360424,6.167259786,6.25
18:28.1,-0.019683093,0.107565012,9.907766184,0.014776988,-0.060539467,-0.031108747,-0.077738516,6.170818505,6.254098361
18:28.1,-0.019683093,0.107565012,9.897956251,-0.015541375,-0.015134867,-0.04666312,-0.081272085,6.167259786,6.25
18:28.2,-0.048683743,0.126477541,9.878437267,-0.030471241,0.030269734,0.139989361,-0.067137809,6.163701068,6.254098361
18:28.2,-0.04821093,0.079196217,9.937764948,-0.030318364,0.0454046,-0.108880614,-0.074204947,6.163701068,6.258196721
18:28.2,-0.01036294,0.135933806,9.907389294,0.21559185,0.015134867,0.124434987,-0.067137809,6.167259786,6.25
18:28.2,-0.019683093,0.107565012,9.937195982,0.21498034,-0.0454046,-0.062217494,-0.081272085,6.174377224,6.262295082
18:28.2,-0.029381497,0.117021277,9.917578538,-0.030165486,0.060539467,0.015554373,-0.074204947,6.170818505,6.25
18:28.2,-0.010457502,0.145390071,9.926915542,-0.030165486,0.060539467,0.062217494,-0.070671378,6.167259786,6.245901639
18:28.2,-0.048400055,0.098108747,9.976817444,0.216050482,0.060539467,0,-0.070671378,6.174377224,6.25
18:28.2,-0.038796214,0.098108747,9.849192282,0.108330996,0.060539467,-0.031108747,-0.09540636,6.163701068,6.254098361
18:28.2,-0.038985339,0.117021277,9.917674576,-0.076789613,0.015134867,-0.04666312,-0.074204947,6.163701068,6.258196721
18:28.2,-0.019966781,0.135933806,9.956534996,0.063082767,0.151348668,0.124434987,-0.074204947,6.163701068,6.25
18:28.3,-0.019493968,0.088652482,9.907953418,0.030318364,-0.0454046,0.139989361,-0.074204947,6.170818505,6.245901639
18:28.3,-0.028908684,0.069739953,9.947476421,0.046012617,-0.015134867,0.04666312,-0.070671378,6.167259786,6.254098361
18:28.3,-0.038890776,0.107565012,9.898148328,-0.076636735,0.030269734,0.139989361,-0.081272085,6.167259786,6.25
18:28.3,-0.019683093,0.107565012,9.897956251,0.17095513,0.166483535,0.202206855,-0.06360424,6.170818505,6.258196721
18:28.3,-0.01036294,0.135933806,9.985868755,-0.031847138,-0.105944068,0.139989361,-0.067137809,6.167259786,6.25
18:28.3,-0.029097809,0.088652482,9.898239524,0.061401115,-0.015134867,0.186652481,-0.077738516,6.163701068,6.25
18:28.3,-0.019399405,0.079196217,9.957096698,-0.091566601,0.075674334,0.093326241,-0.074204947,6.170818505,6.254098361
18:28.3,-0.038607088,0.079196217,9.947478842,0.12219072,-0.090809201,0.093326241,-0.074204947,6.167259786,6.254098361
18:28.3,-0.04858918,0.117021277,9.89815075,0.2760757,-0.090809201,0.04666312,-0.088339223,6.163701068,6.25
18:28.3,-0.009795564,0.079196217,9.937380794,0.230521715,-0.030269734,-0.015554373,-0.067137809,6.170818505,6.254098361
18:28.4,-0.019872218,0.126477541,9.90757895,0.230674593,-0.015134867,0.04666312,-0.070671378,6.160142349,6.245901639
18:28.4,-0.038796214,0.098108747,9.91786181,0.168814846,-0.0454046,0.108880614,-0.070671378,6.163701068,6.258196721
18:28.4,-0.019777656,0.117021277,9.937102365,0.168203336,-0.105944068,0.139989361,-0.09540636,6.163701068,6.258196721
18:28.4,-0.04821093,0.079196217,9.94757488,0.046012617,-0.015134867,-0.062217494,-0.077738516,6.163701068,6.258196721
18:28.4,-0.058003897,0.098108747,9.957293617,0.015388498,0,0.031108747,-0.074204947,6.167259786,6.262295082
18:28.4,-0.077306142,0.107565012,9.977011942,-0.07633098,0.060539467,0.202206855,-0.070671378,6.163701068,6.245901639
18:28.4,-0.010079252,0.107565012,9.917480078,-0.045095352,0.105944068,0.108880614,-0.074204947,6.160142349,6.25
18:28.4,-0.04821093,0.079196217,9.937764948,0.246063091,-0.015134867,-0.015554373,-0.074204947,6.170818505,6.254098361
18:28.4,-0.058193022,0.117021277,9.947296451,0.21559185,0.015134867,0.093326241,-0.070671378,6.167259786,6.258196721
18:28.4,-0.029381497,0.117021277,9.956818268,0.123107984,0,0.326641842,-0.067137809,6.163701068,6.245901639
18:28.5,-0.058193022,0.117021277,9.976726248,0.292228585,-0.015134867,0.171098108,-0.074204947,6.167259786,6.254098361
18:28.5,-0.067702301,0.107565012,9.869006646,-0.030318364,0.0454046,0.077771867,-0.067137809,6.170818505,6.25
18:28.5,-0.058003897,0.098108747,9.908243955,-0.015388498,0,0.062217494,-0.070671378,6.167259786,6.254098361
18:28.5,-0.057909334,0.088652482,9.957387234,-0.00061151,-0.060539467,0.077771867,-0.067137809,6.170818505,6.254098361
18:28.5,-0.067418613,0.079196217,9.95757689,0.108178118,0.0454046,0.077771867,-0.070671378,6.170818505,6.25
18:28.5,-0.048116367,0.069739953,9.937858565,-0.000458632,-0.0454046,0.062217494,-0.070671378,6.174377224,6.25
18:28.5,-0.01958853,0.098108747,9.907859801,0.06170687,0.015134867,0.248869975,-0.070671378,6.167259786,6.241803279
18:28.5,-0.029003247,0.079196217,9.976812601,0.199591842,-0.0454046,0.077771867,-0.077738516,6.170818505,6.254098361
18:28.5,-0.067891426,0.126477541,9.917869074,0.077095368,0.015134867,0.077771867,-0.084805654,6.160142349,6.258196721
18:28.5,-0.039269027,0.145390071,9.946823523,0.062165502,0.060539467,0.093326241,-0.070671378,6.167259786,6.25
18:28.5,-0.048400055,0.098108747,9.908147916,0.077401122,0.0454046,0.186652481,-0.081272085,6.160142349,6.25
18:28.6,-0.057720209,0.069739953,9.957574468,0.216050482,0.060539467,0.062217494,-0.077738516,6.174377224,6.245901639
18:28.6,-0.029286935,0.107565012,9.927482087,-0.014929866,0.0454046,0.124434987,-0.070671378,6.170818505,6.245901639
18:28.6,-0.038890776,0.107565012,9.907958261,0.107872364,0.015134867,0.077771867,-0.067137809,6.160142349,6.25
18:28.6,-0.058098459,0.107565012,9.91796027,-0.02817808,0.257292736,0.031108747,-0.070671378,6.163701068,6.258196721
18:28.6,-0.019493968,0.088652482,9.957003081,-0.076636735,0.030269734,0.171098108,-0.060070671,6.163701068,6.25
18:28.6,-0.048021804,0.060283688,10.00662171,0.031388506,0.060539467,0.093326241,-0.074204947,6.167259786,6.25
18:28.6,-0.086815421,0.098108747,9.937961867,-0.000458632,-0.0454046,0,-0.067137809,6.160142349,6.25
18:28.6,-0.048305492,0.088652482,9.888621668,-0.091107969,0.121078934,0.186652481,-0.070671378,6.167259786,6.254098361
18:28.6,-0.067513175,0.088652482,9.918243543,-0.015082743,0.030269734,-0.031108747,-0.06360424,6.163701068,6.25
18:28.6,-0.01958853,0.098108747,9.898049868,-0.033375913,-0.257292736,-0.04666312,-0.070671378,6.160142349,6.25
18:28.7,-0.057531083,0.050827423,9.938141837,0.002751794,0.272427602,0.04666312,-0.070671378,6.163701068,6.254098361
18:28.7,-0.038890776,0.107565012,9.927578126,0.108025241,0.030269734,0.108880614,-0.091872792,6.163701068,6.25
18:28.7,-0.028814121,0.060283688,9.898520375,0.014776988,-0.060539467,0.139989361,-0.074204947,6.163701068,6.245901639
18:28.7,-0.067513175,0.088652482,9.98691307,0.231286103,0.0454046,0,-0.074204947,6.160142349,6.241803279
18:28.7,0.009033869,0.117021277,9.927004317,0.062318379,0.075674334,0,-0.067137809,6.163701068,6.254098361
18:28.7,-0.048116367,0.069739953,9.888808902,0.000917265,0.090809201,0.04666312,-0.081272085,6.167259786,6.245901639
18:28.7,-0.000664535,0.126477541,9.936816671,-0.108025241,-0.030269734,0.155543734,-0.067137809,6.170818505,6.254098361
18:28.7,-0.048494618,0.107565012,9.917864232,0.155260877,0.136213801,0.04666312,-0.074204947,6.170818505,6.241803279
18:28.7,-0.039079901,0.126477541,9.956820689,0.078318387,0.136213801,0.139989361,-0.070671378,6.160142349,6.254098361
18:28.7,-0.038890776,0.107565012,9.907958261,0.031235628,0.0454046,0.139989361,-0.074204947,6.167259786,6.25
18:28.8,-0.038512526,0.069739953,9.986812189,-0.000458632,-0.0454046,0.077771867,-0.070671378,6.160142349,6.254098361
18:28.8,-0.067607738,0.098108747,9.918149926,0.122802229,-0.030269734,0.031108747,-0.077738516,6.167259786,6.254098361
18:28.8,0.008750181,0.145390071,9.907103601,0.029706854,-0.105944068,0,-0.077738516,6.163701068,6.254098361
18:28.8,-0.029192372,0.098108747,9.907955839,0.108483873,0.075674334,0,-0.077738516,6.174377224,6.254098361
18:28.8,-0.029192372,0.098108747,9.937385637,-0.029553977,0.121078934,-0.015554373,-0.070671378,6.163701068,6.258196721
18:28.8,-0.058382147,0.135933806,9.907869486,0.062777012,0.121078934,-0.031108747,-0.067137809,6.163701068,6.25
18:28.8,-0.000380847,0.098108747,9.946907454,0.030776996,0,0.124434987,-0.074204947,6.167259786,6.245901639
18:28.8,-0.029003247,0.079196217,9.878713276,0.154190735,0.030269734,0.04666312,-0.074204947,6.174377224,6.25
18:28.8,-0.02947606,0.126477541,10.01558425,0.123260862,0.015134867,0.202206855,-0.070671378,6.160142349,6.25
18:28.8,-0.04821093,0.079196217,9.977004678,-0.045859739,0.030269734,-0.093326241,-0.074204947,6.163701068,6.25
18:28.8,-0.009984689,0.098108747,9.888143897,-0.030165486,0.060539467,0.139989361,-0.084805654,6.170818505,6.245901639
18:28.9,-0.019683093,0.107565012,9.937195982,0.03230577,0.151348668,0.171098108,-0.070671378,6.163701068,6.254098361
18:28.9,-0.067607738,0.098108747,9.947579723,0.001375897,0.136213801,0.155543734,-0.070671378,6.167259786,6.254098361
18:28.9,-0.048021804,0.060283688,9.908522384,0.137884972,-0.060539467,0.155543734,-0.074204947,6.167259786,6.245901639
18:28.9,-0.010079252,0.107565012,9.88805028,-0.015082743,0.030269734,0.155543734,-0.081272085,6.170818505,6.254098361
18:28.9,-0.019399405,0.079196217,9.908047035,0.107872364,0.015134867,0.139989361,-0.067137809,6.163701068,6.245901639
18:28.9,-0.067513175,0.088652482,9.94767334,-0.155413755,-0.151348668,0.04666312,-0.074204947,6.163701068,6.254098361
18:28.9,-0.038796214,0.098108747,9.976721406,0.014929866,-0.0454046,0.217761228,-0.070671378,6.163701068,6.254098361
18:28.9,0.018732273,0.107565012,9.936811828,0.045859739,-0.030269734,-0.04666312,-0.081272085,6.174377224,6.245901639
18:28.9,-0.057814771,0.079196217,9.918241121,0.000305755,0.030269734,0.124434987,-0.067137809,6.170818505,6.254098361
18:28.9,-0.00932275,0.031914894,9.918229014,0.016305763,0.090809201,-0.108880614,-0.074204947,6.160142349,6.245901639
18:29.0,0.019110524,0.069739953,9.917566431,0.183133202,-0.151348668,-0.093326241,-0.074204947,6.163701068,6.254098361
18:29.0,-0.009890126,0.088652482,9.917667312,0.062165502,0.060539467,0.015554373,-0.088339223,6.174377224,6.254098361
18:29.0,-0.067891426,0.126477541,9.966918737,0.123413739,0.030269734,-0.093326241,-0.070671378,6.174377224,6.25
18:29.0,-0.038512526,0.069739953,10.00643205,0.138496482,0,0.139989361,-0.077738516,6.167259786,6.245901639
18:29.0,-0.029097809,0.088652482,9.976718984,0.077554,0.060539467,0,-0.070671378,6.167259786,6.245901639
18:29.0,-0.029192372,0.098108747,9.94719557,0.014471233,-0.090809201,0.124434987,-0.077738516,6.163701068,6.25
18:29.0,-0.01958853,0.098108747,9.907859801,0.01707015,0.166483535,0.124434987,-0.070671378,6.163701068,6.245901639
18:29.0,-0.000853661,0.145390071,9.917009572,-0.015388498,0,0.124434987,-0.070671378,6.163701068,6.25
18:29.0,-0.019966781,0.135933806,9.878055535,-0.014929866,0.0454046,0.04666312,-0.067137809,6.167259786,6.245901639
18:29.0,-0.038417963,0.060283688,9.928046211,0.046165494,0,0.031108747,-0.074204947,6.167259786,6.25
18:29.1,-0.038890776,0.107565012,9.927578126,0.063235644,0.166483535,0.031108747,-0.067137809,6.167259786,6.254098361
18:29.1,-0.019493968,0.088652482,9.927573283,0.090649336,-0.166483535,0.04666312,-0.067137809,6.167259786,6.258196721
18:29.1,-0.038607088,0.079196217,9.908239112,0.016152885,0.075674334,0.139989361,-0.074204947,6.15658363,6.245901639
18:29.1,-0.048778306,0.135933806,9.917583381,-0.029706854,0.105944068,0.015554373,-0.077738516,6.163701068,6.258196721
18:29.1,-0.038796214,0.098108747,9.937481675,-0.046012617,0.015134867,0.015554373,-0.067137809,6.170818505,6.254098361
18:29.1,-0.058571272,0.154846336,9.946921983,-0.045248229,0.090809201,-0.015554373,-0.070671378,6.170818505,6.245901639
18:29.1,-0.048494618,0.107565012,9.947294029,-0.168509091,0.075674334,-0.062217494,-0.077738516,6.170818505,6.25
18:29.1,-0.048021804,0.060283688,9.928142249,0.139107992,0.060539467,0.04666312,-0.067137809,6.160142349,6.25
18:29.1,-0.029286935,0.107565012,9.947101953,-0.031082751,-0.030269734,0.202206855,-0.077738516,6.163701068,6.254098361
18:29.1,-0.028908684,0.069739953,9.967096286,-0.062471257,-0.090809201,0.124434987,-0.070671378,6.160142349,6.25
18:29.2,-0.058098459,0.107565012,9.898340405,0.030776996,0,0.124434987,-0.091872792,6.167259786,6.245901639
18:29.2,-0.009795564,0.079196217,9.917760929,0.09340113,0.105944068,0.062217494,-0.070671378,6.160142349,6.254098361
18:29.2,-0.039269027,0.145390071,9.93701359,0.076789613,-0.015134867,0.077771867,-0.067137809,6.160142349,6.258196721
18:29.2,-0.048305492,0.088652482,9.957291196,-0.093095375,-0.075674334,0,-0.074204947,6.170818505,6.254098361
18:29.2,-0.000286285,0.088652482,9.956811004,0.137884972,-0.060539467,0.124434987,-0.074204947,6.167259786,6.254098361
18:29.2,-0.019493968,0.088652482,9.91776335,0.092636743,0.030269734,-0.031108747,-0.06360424,6.167259786,6.25
18:29.2,-0.029570623,0.135933806,9.946821101,0.031694261,0.090809201,0.124434987,-0.067137809,6.170818505,6.262295082
18:29.2,-0.019399405,0.079196217,9.957096698,-0.046471249,-0.030269734,0.077771867,-0.074204947,6.163701068,6.254098361
18:29.2,-0.048494618,0.107565012,9.908054299,0.261145834,-0.0454046,0.139989361,-0.070671378,6.163701068,6.245901639
18:29.2,-0.019966781,0.135933806,9.917295265,0.167744704,-0.151348668,0.062217494,-0.074204947,6.174377224,6.237704918
18:29.3,-0.019304843,0.069739953,9.947380382,0.06109536,-0.0454046,0.124434987,-0.077738516,6.163701068,6.25
18:29.3,-0.067513175,0.088652482,9.94767334,-0.262521731,-0.090809201,0.171098108,-0.098939929,6.174377224,6.258196721
18:29.3,-0.01958853,0.098108747,9.956909464,0.15327347,-0.060539467,0,-0.084805654,6.167259786,6.25
18:29.3,-0.038701651,0.088652482,9.976815023,-0.106190712,0.151348668,0.108880614,-0.067137809,6.167259786,6.245901639
18:29.3,-0.048778306,0.135933806,9.907773448,-0.108636751,-0.090809201,0.04666312,-0.077738516,6.167259786,6.258196721
18:29.3,-0.009511876,0.050827423,9.91804178,0.106802221,-0.090809201,0.139989361,-0.084805654,6.174377224,6.237704918
18:29.3,-0.029192372,0.098108747,9.888335974,0.077248245,0.030269734,0.279978722,-0.067137809,6.174377224,6.25
18:29.3,-0.009606438,0.060283688,9.966997826,0.230368838,-0.0454046,0.326641842,-0.06360424,6.163701068,6.25
18:29.3,-0.029097809,0.088652482,9.908049456,0.031235628,0.0454046,-0.015554373,-0.070671378,6.160142349,6.25
18:29.3,-0.038512526,0.069739953,9.977002257,0.24728611,0.105944068,-0.015554373,-0.067137809,6.170818505,6.245901639
18:29.3,-0.019777656,0.117021277,9.868432837,-0.014929866,0.0454046,0.108880614,-0.067137809,6.163701068,6.254098361
18:29.4,-0.077495268,0.126477541,9.937584978,0.231591858,0.075674334,0.015554373,-0.070671378,6.167259786,6.254098361
18:29.4,-0.057909334,0.088652482,9.967197167,0.001834529,0.181618402,0.108880614,-0.070671378,6.160142349,6.254098361
18:29.4,-0.039269027,0.145390071,9.887963928,0.214827463,-0.060539467,0.062217494,-0.067137809,6.167259786,6.254098361
18:29.4,-0.009984689,0.098108747,9.996053155,-0.091719478,0.060539467,-0.124434987,-0.070671378,6.160142349,6.25
18:29.4,-0.029192372,0.098108747,9.907955839,0.092025233,-0.030269734,0.155543734,-0.067137809,6.167259786,6.25
18:29.4,0.018826836,0.098108747,9.966335243,0.031388506,0.060539467,0.171098108,-0.091872792,6.163701068,6.25
18:29.4,-0.04821093,0.079196217,9.957384813,0.215744727,0.030269734,0.108880614,-0.070671378,6.163701068,6.254098361
18:29.4,-0.058003897,0.098108747,9.898434022,0.107872364,0.015134867,0.171098108,-0.067137809,6.170818505,6.254098361
18:29.4,-0.067513175,0.088652482,9.928053475,-0.030929873,-0.015134867,0.108880614,-0.074204947,6.167259786,6.254098361
18:29.4,0.009128432,0.107565012,9.956527731,0.031082751,0.030269734,0.155543734,-0.088339223,6.163701068,6.258196721
18:29.5,-0.029381497,0.117021277,9.92738847,0.031235628,0.0454046,0.108880614,-0.070671378,6.167259786,6.254098361
18:29.5,-0.019966781,0.135933806,9.907485333,0.201426371,0.136213801,0.155543734,-0.074204947,6.167259786,6.25
18:29.5,-0.058382147,0.135933806,9.937299284,-0.015235621,0.015134867,0.139989361,-0.067137809,6.163701068,6.245901639
18:29.5,-0.058003897,0.098108747,9.92786382,-0.169273478,0,0.04666312,-0.074204947,6.167259786,6.25
18:29.5,-2.60E-06,0.060283688,9.917852125,-0.091413723,0.090809201,0.171098108,-0.067137809,6.163701068,6.254098361
18:29.5,-0.029097809,0.088652482,9.947289187,0.062624134,0.105944068,0.108880614,-0.070671378,6.163701068,6.254098361
18:29.5,-9.72E-05,0.069739953,9.917758508,0.106955099,-0.075674334,0.108880614,-0.074204947,6.170818505,6.254098361
18:29.5,-0.038701651,0.088652482,9.947385225,0.201426371,0.136213801,0.171098108,-0.074204947,6.170818505,6.254098361
18:29.5,-0.039079901,0.126477541,9.976440555,0.107872364,0.015134867,0.077771867,-0.070671378,6.160142349,6.245901639
18:29.5,-0.038701651,0.088652482,9.96700509,0.123719494,0.060539467,0.139989361,-0.067137809,6.163701068,6.25
18:29.6,-0.019777656,0.117021277,9.907672567,0.029553977,-0.121078934,-0.031108747,-0.070671378,6.170818505,6.254098361
18:29.6,-0.058098459,0.107565012,9.927770203,0.000764387,0.075674334,0.139989361,-0.081272085,6.163701068,6.245901639
18:29.6,-0.019399405,0.079196217,9.917856967,0.046165494,0,0.04666312,-0.070671378,6.167259786,6.241803279
18:29.6,-0.038607088,0.079196217,9.927858977,0.015082743,-0.030269734,0.031108747,-0.067137809,6.163701068,6.254098361
18:29.6,-0.096986639,0.154846336,9.966926001,-0.014776988,0.060539467,0.108880614,-0.074204947,6.174377224,6.258196721
18:29.6,-0.038701651,0.088652482,9.917955427,0.230521715,-0.030269734,0.171098108,-0.067137809,6.167259786,6.25
18:29.6,-0.048967431,0.154846336,9.907586214,-0.13803785,0.0454046,0.124434987,-0.060070671,6.160142349,6.254098361
18:29.6,-0.058382147,0.135933806,9.976539014,0.124178126,0.105944068,0.031108747,-0.074204947,6.160142349,6.245901639
18:29.6,-0.057720209,0.069739953,9.947764536,0.032152893,0.136213801,0.031108747,-0.077738516,6.163701068,6.262295082
18:29.6,-0.096513825,0.107565012,9.957584154,0.155260877,0.136213801,0.124434987,-0.060070671,6.167259786,6.254098361
18:29.7,-0.019493968,0.088652482,9.927573283,-0.015694253,-0.030269734,0.108880614,-0.067137809,6.163701068,6.245901639
18:29.7,-0.048967431,0.154846336,9.927206079,0.07694249,0,0.093326241,-0.070671378,6.167259786,6.254098361
18:29.7,-0.038701651,0.088652482,9.908145495,0.277910229,0.090809201,-0.139989361,-0.070671378,6.167259786,6.245901639
18:29.7,-0.039269027,0.145390071,9.89777386,-0.015541375,-0.015134867,0.031108747,-0.067137809,6.160142349,6.25
18:29.7,-0.029003247,0.079196217,9.957192736,0.078471265,0.151348668,0.015554373,-0.074204947,6.167259786,6.254098361
18:29.7,-0.000664535,0.126477541,9.985866333,0.122496474,-0.060539467,0.093326241,-0.067137809,6.163701068,6.245901639
18:29.7,-0.057909334,0.088652482,9.947577302,-0.15449649,-0.060539467,0.077771867,-0.091872792,6.167259786,6.25
18:29.7,-0.048400055,0.098108747,9.927767781,0.061248237,-0.030269734,0.108880614,-0.070671378,6.160142349,6.254098361
18:29.7,-0.029570623,0.135933806,9.956631034,-0.015388498,0,0.077771867,-0.067137809,6.167259786,6.241803279
18:29.7,-0.019493968,0.088652482,9.87852362,-0.046012617,0.015134867,0.077771867,-0.077738516,6.170818505,6.254098361
18:29.7,-0.086815421,0.098108747,9.928151935,0.045859739,-0.030269734,0.031108747,-0.067137809,6.163701068,6.25
18:29.8,-0.009795564,0.079196217,9.927570862,0.06048385,-0.105944068,0.124434987,-0.067137809,6.163701068,6.245901639
18:29.8,-0.039174464,0.135933806,9.878247612,0.062318379,0.075674334,-0.015554373,-0.074204947,6.170818505,6.245901639
18:29.8,0.009601245,0.060283688,9.937375951,0.108942506,0.121078934,0.139989361,-0.06360424,6.170818505,6.254098361
18:29.8,-0.058003897,0.098108747,9.918053887,0.062012624,0.0454046,0.093326241,-0.067137809,6.167259786,6.245901639
18:29.8,-0.019777656,0.117021277,9.927292432,-0.077401122,-0.0454046,0.077771867,-0.070671378,6.163701068,6.245901639
18:29.8,-0.038890776,0.107565012,9.927578126,-0.001681652,-0.166483535,0.171098108,-0.067137809,6.163701068,6.25
18:29.8,-0.048116367,0.069739953,9.888808902,-0.077706877,-0.075674334,0.04666312,-0.074204947,6.163701068,6.245901639
18:29.8,-0.038985339,0.117021277,9.898054711,0,0,-0.015554373,-0.067137809,6.167259786,6.25
18:29.8,-0.067702301,0.107565012,9.957296039,-0.031541383,-0.075674334,0.264424348,-0.060070671,6.163701068,6.25
18:29.8,-0.01958853,0.098108747,9.956909464,0.214674585,-0.075674334,0.171098108,-0.074204947,6.163701068,6.25
18:29.9,-0.019399405,0.079196217,9.957096698,0.029859731,-0.090809201,-0.04666312,-0.091872792,6.163701068,6.262295082
18:29.9,0.134167497,0.088652482,9.955466466,0.168203336,-0.105944068,0.093326241,-0.070671378,6.163701068,6.25
18:29.9,-0.038701651,0.088652482,9.947385225,-0.045248229,0.090809201,0.062217494,-0.070671378,6.160142349,6.25
18:29.9,-0.02947606,0.126477541,10.03520411,0.048000023,0.181618402,0.108880614,-0.070671378,6.167259786,6.245901639
18:29.9,-0.029097809,0.088652482,9.937479254,0.046165494,0,0.124434987,-0.091872792,6.163701068,6.262295082
18:29.9,-0.01958853,0.098108747,9.898049868,0.015541375,0.015134867,0.062217494,-0.067137809,6.163701068,6.25
18:29.9,-0.078535457,0.230496454,9.965984988,-0.091872356,0.0454046,-0.031108747,-0.070671378,6.163701068,6.262295082
18:29.9,-0.038796214,0.098108747,9.937481675,0.324381478,0.121078934,0.171098108,-0.070671378,6.170818505,6.25
18:29.9,-0.077117017,0.088652482,9.957579311,-0.029706854,0.105944068,0.108880614,-0.070671378,6.170818505,6.258196721
18:29.9,-0.02947606,0.126477541,9.937104786,-0.032611525,-0.181618402,0.124434987,-0.067137809,6.15658363,6.254098361
18:30.0,-0.00932275,0.031914894,9.937848879,0.108330996,0.060539467,0.279978722,-0.067137809,6.15658363,6.245901639
18:30.0,-0.019493968,0.088652482,9.957003081,0.078777019,0.181618402,-0.031108747,-0.070671378,6.163701068,6.254098361
18:30.0,-0.067702301,0.107565012,9.888626511,-0.061553992,0,0.186652481,-0.070671378,6.170818505,6.25
18:30.0,-0.067796863,0.117021277,9.957202422,-0.168509091,0.075674334,0.202206855,-0.060070671,6.170818505,6.25
18:30.0,-0.019493968,0.088652482,9.927573283,0.030929873,0.015134867,0.155543734,-0.067137809,6.160142349,6.254098361
18:30.0,-0.019777656,0.117021277,9.917482499,0.198827455,-0.121078934,0.357750589,-0.091872792,6.167259786,6.258196721
18:30.0,-0.058098459,0.107565012,9.947390068,0.107872364,0.015134867,0.093326241,-0.067137809,6.170818505,6.245901639
18:30.0,-0.019493968,0.088652482,9.888333553,0.060178095,-0.136213801,0.015554373,-0.067137809,6.167259786,6.258196721
18:30.0,-0.067513175,0.088652482,9.937863408,0.015541375,0.015134867,0.062217494,-0.081272085,6.167259786,6.25
18:30.0,-0.010079252,0.107565012,9.946909876,0.200661984,0.060539467,0,-0.070671378,6.160142349,6.25
18:30.1,-0.028908684,0.069739953,9.947476421,0.01645864,0.105944068,0.093326241,-0.074204947,6.170818505,6.245901639
18:30.1,-0.07721158,0.098108747,9.937865829,0.215897605,0.0454046,0.155543734,-0.067137809,6.160142349,6.254098361
18:30.1,-0.048400055,0.098108747,9.878718118,0.169273478,0,0.04666312,-0.074204947,6.170818505,6.25
18:30.1,-0.019493968,0.088652482,9.898143485,0.246063091,-0.015134867,0.155543734,-0.070671378,6.163701068,6.254098361
18:30.1,-0.04858918,0.117021277,9.957010345,0.153579225,-0.030269734,0.124434987,-0.067137809,6.170818505,6.245901639
18:30.1,-0.019493968,0.088652482,9.907953418,0.077554,0.060539467,0.311087468,-0.070671378,6.167259786,6.245901639
18:30.1,-0.067985989,0.135933806,9.947205255,-0.06048385,0.105944068,0.264424348,-0.070671378,6.167259786,6.241803279
18:30.1,-0.058287585,0.126477541,9.937392901,-0.107719486,0,0.171098108,-0.070671378,6.15658363,6.25
18:30.1,-0.038607088,0.079196217,9.967098707,0.062012624,0.0454046,0.04666312,-0.070671378,6.170818505,6.254098361
18:30.1,-0.019304843,0.069739953,9.888520787,-0.076789613,0.015134867,0.077771867,-0.070671378,6.160142349,6.25
18:30.1,-0.029665185,0.145390071,9.946727484,0.030929873,0.015134867,0.093326241,-0.091872792,6.167259786,6.25
18:30.2,-0.019493968,0.088652482,9.937383216,-0.076178103,0.075674334,-0.139989361,-0.074204947,6.163701068,6.254098361
18:30.2,-0.048494618,0.107565012,9.996343692,-0.184509099,0.015134867,0.015554373,-0.074204947,6.170818505,6.25
18:30.2,-0.048305492,0.088652482,9.937671331,0.045248229,-0.090809201,0.077771867,-0.074204947,6.163701068,6.25
18:30.2,-0.008566249,-0.043735225,9.997457411,0.186037873,0.136213801,0.093326241,-0.088339223,6.167259786,6.25
18:30.2,-0.048683743,0.126477541,9.907867065,0.061859747,0.030269734,0.171098108,-0.067137809,6.167259786,6.245901639
18:30.2,-0.048494618,0.107565012,9.966913894,0.123107984,0,0.171098108,-0.074204947,6.167259786,6.25
18:30.2,-0.048305492,0.088652482,9.937671331,0.13864936,0.015134867,0.202206855,-0.074204947,6.163701068,6.262295082
18:30.2,0.009222994,0.098108747,9.956621348,0.275617067,-0.136213801,0,-0.070671378,6.163701068,6.25
18:30.2,-0.019493968,0.088652482,9.937383216,0.170037865,0.075674334,0.031108747,-0.067137809,6.163701068,6.245901639
18:30.2,-0.029381497,0.117021277,9.966628201,0.076636735,-0.030269734,0.015554373,-0.070671378,6.174377224,6.245901639
18:30.3,-0.010079252,0.107565012,9.937099943,0.230674593,-0.015134867,0.124434987,-0.070671378,6.167259786,6.254098361
18:30.3,-0.009890126,0.088652482,9.888237514,-0.047847146,-0.166483535,0.093326241,-0.081272085,6.163701068,6.258196721
18:30.3,-0.029286935,0.107565012,9.996151615,-0.000458632,-0.0454046,0.124434987,-0.084805654,6.167259786,6.258196721
18:30.3,-0.048305492,0.088652482,9.888621668,-0.000152877,-0.015134867,0,-0.09540636,6.174377224,6.241803279
18:30.3,-0.058098459,0.107565012,9.9572,0.062318379,0.075674334,0.093326241,-0.077738516,6.170818505,6.245901639
18:30.4,-0.04821093,0.079196217,9.898525218,0.07816551,0.121078934,0.186652481,-0.067137809,6.15658363,6.245901639
18:30.4,-0.038796214,0.098108747,9.87862208,0.107719486,0,0.015554373,-0.067137809,6.167259786,6.25
18:30.4,-0.038796214,0.098108747,9.927671743,-0.014471233,0.090809201,0.124434987,-0.074204947,6.170818505,6.254098361
18:30.4,-0.086626296,0.079196217,9.938149102,0.138802237,0.030269734,0.139989361,-0.067137809,6.167259786,6.25
18:30.4,0.008939306,0.126477541,9.936720632,0.231286103,0.0454046,0,-0.067137809,6.167259786,6.25
18:30.4,-0.057814771,0.079196217,9.937860986,0.093554008,0.121078934,0.04666312,-0.067137809,6.160142349,6.245901639
18:30.4,-0.057814771,0.079196217,9.947670919,-0.046777004,-0.060539467,0.077771867,-0.074204947,6.163701068,6.258196721
18:30.5,-0.039269027,0.145390071,9.927203658,-0.001070142,-0.105944068,-0.015554373,-0.09540636,6.170818505,6.258196721
18:30.5,-0.047927242,0.050827423,9.839946473,0.106955099,-0.075674334,-0.04666312,-0.077738516,6.167259786,6.254098361
18:30.5,-0.05847671,0.145390071,9.897965937,0.090955091,-0.136213801,-0.077771867,-0.077738516,6.163701068,6.241803279
18:30.5,-0.019872218,0.126477541,9.956628613,0.108178118,0.0454046,0,-0.070671378,6.170818505,6.254098361
18:30.5,-0.038890776,0.107565012,9.947197991,0.154343613,0.0454046,0.108880614,-0.084805654,6.167259786,6.245901639
18:30.5,-0.057909334,0.088652482,9.947577302,0.061401115,-0.015134867,0.093326241,-0.074204947,6.163701068,6.254098361
18:30.5,-0.027868495,-0.03427896,9.91907641,0.092025233,-0.030269734,-0.108880614,-0.070671378,6.167259786,6.25
18:30.5,-0.048494618,0.107565012,9.98653376,0.231286103,0.0454046,0.015554373,-0.077738516,6.163701068,6.25
18:30.5,-0.048400055,0.098108747,9.937577714,-0.00061151,-0.060539467,0.015554373,-0.088339223,6.163701068,6.254098361
18:30.5,-0.04821093,0.079196217,9.927955015,0.092025233,-0.030269734,0.108880614,-0.06360424,6.167259786,6.254098361
18:30.6,-0.057814771,0.079196217,9.908431189,0.093554008,0.121078934,0.077771867,-0.056537102,6.163701068,6.241803279
18:30.6,-0.000191722,0.079196217,9.898045026,0,0,-0.062217494,-0.070671378,6.167259786,6.258196721
18:30.6,-0.038796214,0.098108747,9.947291608,0.122802229,-0.030269734,0.093326241,-0.070671378,6.163701068,6.25
18:30.6,-0.02947606,0.126477541,9.927294853,0.030471241,-0.030269734,0.139989361,-0.077738516,6.163701068,6.25
18:30.6,-0.019304843,0.069739953,9.927760517,0.046471249,0.030269734,0.264424348,-0.074204947,6.167259786,6.233606557
18:30.6,-0.038796214,0.098108747,9.947291608,-0.030776996,0,0.139989361,-0.070671378,6.15658363,6.245901639
18:30.6,-0.009701001,0.069739953,9.888424748,0.000917265,0.090809201,0.171098108,-0.074204947,6.170818505,6.254098361
18:30.6,-0.058382147,0.135933806,9.907869486,0.092025233,-0.030269734,0.295533095,-0.074204947,6.167259786,6.254098361
18:30.6,-0.038701651,0.088652482,9.937575292,0.138190727,-0.030269734,0.04666312,-0.06360424,6.163701068,6.258196721
18:30.6,-0.038796214,0.098108747,9.996341271,-0.076636735,0.030269734,0.139989361,-0.098939929,6.163701068,6.245901639
18:30.7,-0.019304843,0.069739953,9.957190315,0.014776988,-0.060539467,0.093326241,-0.06360424,6.167259786,6.258196721
18:30.7,-0.029003247,0.079196217,9.957192736,0.09340113,0.105944068,0.108880614,-0.074204947,6.167259786,6.262295082
18:30.7,-0.019683093,0.107565012,9.966625779,0.108330996,0.060539467,0.062217494,-0.074204947,6.170818505,6.245901639
18:30.7,-0.010173814,0.117021277,9.917386461,0.09401264,0.166483535,0.233315601,-0.084805654,6.181494662,6.262295082
18:30.7,-0.038796214,0.098108747,9.966911473,0.047694268,0.151348668,0.233315601,-0.070671378,6.163701068,6.25
18:30.7,-0.019493968,0.088652482,9.937383216,0.183897589,-0.075674334,0.108880614,-0.067137809,6.167259786,6.254098361
18:30.7,-0.02947606,0.126477541,9.976344516,0.061401115,-0.015134867,0.202206855,-0.074204947,6.163701068,6.254098361
18:30.7,-0.048683743,0.126477541,9.8882472,0.000917265,0.090809201,0.124434987,-0.074204947,6.167259786,6.25
18:30.7,-0.029381497,0.117021277,9.907768605,0.074496451,-0.242157869,0.077771867,-0.070671378,6.163701068,6.25
18:30.7,-0.086815421,0.098108747,9.937961867,0.092178111,-0.015134867,0.171098108,-0.077738516,6.15658363,6.254098361
18:30.8,-0.029192372,0.098108747,9.917765772,0.031235628,0.0454046,0.171098108,-0.070671378,6.167259786,6.25
18:30.8,-0.038512526,0.069739953,9.908332729,0.185426363,0.075674334,0.139989361,-0.067137809,6.163701068,6.25
18:30.8,0.009033869,0.117021277,9.887764586,-0.030471241,0.030269734,0.202206855,-0.067137809,6.167259786,6.258196721
18:30.8,-0.058193022,0.117021277,9.917866653,0.062012624,0.0454046,0.202206855,-0.067137809,6.170818505,6.245901639
18:30.8,-0.029097809,0.088652482,9.996338849,-0.016917272,-0.151348668,0.108880614,-0.09540636,6.170818505,6.254098361
18:30.8,0.009222994,0.098108747,9.927191551,0.015082743,-0.030269734,0.186652481,-0.067137809,6.167259786,6.241803279
18:30.8,-0.019399405,0.079196217,9.937476833,0.108330996,0.060539467,0.171098108,-0.074204947,6.174377224,6.241803279
18:30.8,-0.06732405,0.069739953,9.938050642,0.014624111,-0.075674334,0.062217494,-0.077738516,6.163701068,6.25
18:30.8,-0.04821093,0.079196217,9.94757488,0,0,0.202206855,-0.088339223,6.170818505,6.258196721
18:30.8,-0.009890126,0.088652482,9.90785738,0.045859739,-0.030269734,0.124434987,-0.074204947,6.167259786,6.25
18:30.8,-0.067985989,0.135933806,9.907965525,-0.060025218,0.151348668,0.015554373,-0.077738516,6.170818505,6.254098361
18:30.9,-0.038607088,0.079196217,9.898429179,-0.01584713,-0.0454046,-0.04666312,-0.074204947,6.160142349,6.241803279
18:30.9,-0.038701651,0.088652482,9.878715697,0.106802221,-0.090809201,0,-0.084805654,6.163701068,6.258196721
18:30.9,-0.000286285,0.088652482,9.966620936,0.060942482,-0.060539467,0.031108747,-0.070671378,6.167259786,6.241803279
18:30.9,-0.057909334,0.088652482,9.977007099,-0.076025225,0.090809201,0.062217494,-0.070671378,6.163701068,6.245901639
18:30.9,-0.039079901,0.126477541,9.927390892,0.247591865,0.136213801,0.093326241,-0.070671378,6.160142349,6.245901639
18:30.9,-0.029192372,0.098108747,9.937385637,0.217579256,0.211888135,0.031108747,-0.077738516,6.167259786,6.25
18:30.9,-0.058003897,0.098108747,9.937673752,0.000764387,0.075674334,0.108880614,-0.074204947,6.163701068,6.254098361
18:30.9,-0.010079252,0.107565012,10.00576947,-0.077554,-0.060539467,0,-0.074204947,6.174377224,6.254098361
18:30.9,-0.02947606,0.126477541,9.917484921,-0.076789613,0.015134867,-0.015554373,-0.067137809,6.160142349,6.25
18:30.9,-0.028814121,0.060283688,9.976999835,-0.13864936,-0.015134867,0.031108747,-0.074204947,6.167259786,6.245901639
18:31.0,-0.029665185,0.145390071,9.946727484,0.153732103,-0.015134867,0.015554373,-0.06360424,6.160142349,6.254098361
18:31.0,-0.038512526,0.069739953,9.947572459,0.109248261,0.151348668,0.062217494,-0.070671378,6.163701068,6.245901639
18:31.0,-0.10621223,0.117021277,9.947776643,0.092178111,-0.015134867,0.171098108,-0.081272085,6.167259786,6.258196721
18:31.0,-0.01958853,0.098108747,9.937289599,0.06109536,-0.0454046,0.015554373,-0.067137809,6.167259786,6.258196721
18:31.0,-0.077117017,0.088652482,9.918339581,0.045401107,-0.075674334,-0.015554373,-0.070671378,6.167259786,6.245901639
18:31.0,-0.029192372,0.098108747,9.937385637,0.062777012,0.121078934,0.171098108,-0.070671378,6.163701068,6.25
18:31.0,-0.01958853,0.098108747,9.917669733,-0.107260854,0.0454046,-0.077771867,-0.077738516,6.170818505,6.25
18:31.0,-0.058098459,0.107565012,9.947390068,-0.001070142,-0.105944068,0.093326241,-0.074204947,6.163701068,6.25
18:31.0,-0.106023104,0.098108747,9.928344012,-0.015541375,-0.015134867,0.264424348,-0.067137809,6.174377224,6.25
18:31.0,-0.009606438,0.060283688,9.898328298,0.123107984,0,0.04666312,-0.067137809,6.167259786,6.254098361
18:31.1,-0.04821093,0.079196217,9.918145083,0.015388498,0,0.015554373,-0.077738516,6.163701068,6.245901639
18:31.1,-0.039174464,0.135933806,9.966537005,0.077706877,0.075674334,0.139989361,-0.070671378,6.170818505,6.245901639
18:31.1,-0.038796214,0.098108747,9.937481675,0.153732103,-0.015134867,0.062217494,-0.067137809,6.15658363,6.254098361
18:31.1,-0.019683093,0.107565012,9.996055577,-0.107107976,0.060539467,0.093326241,-0.067137809,6.163701068,6.241803279
18:31.1,-0.048305492,0.088652482,9.976911061,0.184509099,-0.015134867,0.093326241,-0.074204947,6.160142349,6.245901639
18:31.1,-0.02947606,0.126477541,9.937104786,0.123872371,0.075674334,0.077771867,-0.067137809,6.167259786,6.245901639
18:31.1,-0.038701651,0.088652482,9.92776536,0.062165502,0.060539467,0.077771867,-0.067137809,6.160142349,6.258196721
18:31.1,0.009412119,0.079196217,9.966618515,-0.028636712,0.211888135,0.264424348,-0.077738516,6.167259786,6.254098361
18:31.1,-0.019683093,0.107565012,9.947005914,-0.092942498,-0.060539467,0.186652481,-0.070671378,6.163701068,6.25
18:31.1,-0.019777656,0.117021277,9.976342095,-0.000458632,-0.0454046,-0.062217494,-0.070671378,6.163701068,6.25
18:31.2,0.009412119,0.079196217,9.90775892,-0.046471249,-0.030269734,0.108880614,-0.06360424,6.167259786,6.25
18:31.2,-0.029381497,0.117021277,9.897958673,0.015541375,0.015134867,0.171098108,-0.060070671,6.167259786,6.258196721
18:31.2,-0.04821093,0.079196217,9.90833515,0.168814846,-0.0454046,-0.031108747,-0.070671378,6.167259786,6.258196721
18:31.2,-0.019683093,0.107565012,9.937195982,-0.046012617,0.015134867,0.139989361,-0.060070671,6.160142349,6.25
18:31.2,-0.019966781,0.135933806,9.917295265,-0.092483866,-0.015134867,0.015554373,-0.077738516,6.163701068,6.241803279
18:31.2,-0.029286935,0.107565012,9.888242357,-0.077095368,-0.015134867,0.077771867,-0.091872792,6.163701068,6.254098361
18:31.2,0.018921398,0.088652482,9.956618927,-0.123260862,-0.015134867,0.015554373,-0.067137809,6.163701068,6.245901639
18:31.2,9.20E-05,0.050827423,9.937565607,0.015082743,-0.030269734,0.108880614,-0.067137809,6.170818505,6.25
18:31.2,-0.067134925,0.050827423,9.908808078,0.044942475,-0.121078934,0.062217494,-0.070671378,6.163701068,6.25
18:31.2,-0.048305492,0.088652482,9.937671331,0.015235621,-0.015134867,0.217761228,-0.09540636,6.170818505,6.258196721
18:31.2,-0.038607088,0.079196217,9.967098707,-0.122037842,0.105944068,0.233315601,-0.070671378,6.167259786,6.254098361
18:31.3,-0.067607738,0.098108747,9.977009521,0.153579225,-0.030269734,0.077771867,-0.067137809,6.170818505,6.254098361
18:31.3,-0.009795564,0.079196217,9.907950997,-0.077554,-0.060539467,0.093326241,-0.067137809,6.167259786,6.241803279
18:31.3,-0.039363589,0.154846336,9.976159703,0.092178111,-0.015134867,0.062217494,-0.084805654,6.167259786,6.25
18:31.3,-0.029097809,0.088652482,9.947289187,-0.014929866,0.0454046,0.279978722,-0.077738516,6.160142349,6.241803279
18:31.3,-0.048494618,0.107565012,9.888434434,0.108178118,0.0454046,0.248869975,-0.070671378,6.167259786,6.254098361
18:31.3,-0.048305492,0.088652482,9.937671331,0.061401115,-0.015134867,0.108880614,-0.067137809,6.163701068,6.258196721
18:31.3,-0.020061344,0.145390071,9.946631446,-0.15449649,-0.060539467,0.139989361,-0.070671378,6.170818505,6.25
18:31.3,-0.009984689,0.098108747,9.947003493,0.06170687,0.015134867,0.04666312,-0.070671378,6.163701068,6.266393443
18:31.3,-0.058287585,0.126477541,9.927582969,0.183744712,-0.090809201,0.171098108,-0.070671378,6.160142349,6.25
18:31.3,-0.029286935,0.107565012,9.927482087,0.185732118,0.105944068,0.108880614,-0.074204947,6.163701068,6.25
18:31.4,-0.029381497,0.117021277,9.996057998,0.061553992,0,0.04666312,-0.070671378,6.163701068,6.241803279
18:31.4,-0.000380847,0.098108747,9.897857792,0.093248253,0.090809201,-0.015554373,-0.070671378,6.167259786,6.25
18:31.4,-0.038796214,0.098108747,9.91786181,0.092636743,0.030269734,0.062217494,-0.06360424,6.167259786,6.258196721
18:31.4,-0.038701651,0.088652482,9.937575292,0.016000008,0.060539467,0.031108747,-0.091872792,6.163701068,6.254098361
18:31.4,-0.077684393,0.145390071,9.917777879,-0.06170687,-0.015134867,0.093326241,-0.056537102,6.167259786,6.245901639
18:31.4,-0.010173814,0.117021277,9.946816259,-0.045553984,0.060539467,0.077771867,-0.070671378,6.170818505,6.25
18:31.4,0.009317557,0.088652482,9.966524898,0.200967739,0.090809201,0.108880614,-0.067137809,6.163701068,6.245901639
18:31.4,-0.038607088,0.079196217,9.947478842,0.385476838,0.075674334,0.04666312,-0.081272085,6.170818505,6.25
18:31.4,-0.086909984,0.107565012,9.93786825,0.001834529,0.181618402,0.04666312,-0.06360424,6.167259786,6.245901639
18:31.4,-0.048400055,0.098108747,9.947387646,0.063235644,0.166483535,0.186652481,-0.070671378,6.170818505,6.237704918
18:31.5,-0.000664535,0.126477541,9.966246468,0.123260862,0.015134867,0.139989361,-0.070671378,6.163701068,6.25
18:31.5,-0.009890126,0.088652482,9.956907042,-0.016152885,-0.075674334,0.139989361,-0.067137809,6.163701068,6.25
18:31.5,-0.010079252,0.107565012,9.897860213,-0.184203344,0.0454046,0.015554373,-0.070671378,6.163701068,6.245901639
18:31.5,-0.038417963,0.060283688,9.937856143,0.139107992,0.060539467,0.062217494,-0.06360424,6.170818505,6.254098361
18:31.5,-0.048494618,0.107565012,9.917864232,0.029553977,-0.121078934,0.04666312,-0.070671378,6.163701068,6.25
18:31.5,-0.038796214,0.098108747,9.937481675,0.167897581,-0.136213801,0.077771867,-0.067137809,6.170818505,6.25
18:31.5,-0.019493968,0.088652482,9.927573283,-0.000305755,-0.030269734,0.031108747,-0.074204947,6.167259786,6.254098361
18:31.5,-0.067513175,0.088652482,9.937863408,0.01584713,0.0454046,0.031108747,-0.067137809,6.15658363,6.254098361
18:31.5,-0.07721158,0.098108747,9.908436031,0.123413739,0.030269734,0.04666312,-0.081272085,6.163701068,6.25
18:31.5,-0.010079252,0.107565012,9.88805028,0.184356221,-0.030269734,0.233315601,-0.070671378,6.167259786,6.25
18:31.6,-0.029381497,0.117021277,9.92738847,0.215133217,-0.030269734,0.139989361,-0.067137809,6.170818505,6.25
18:31.6,-0.019399405,0.079196217,9.9276669,0.046318372,0.015134867,0.124434987,-0.067137809,6.167259786,6.254098361
18:31.6,-0.019683093,0.107565012,9.956815847,-0.077095368,-0.015134867,-0.031108747,-0.084805654,6.174377224,6.245901639
18:31.6,-0.01958853,0.098108747,9.947099531,0.045859739,-0.030269734,0.077771867,-0.06360424,6.163701068,6.245901639
18:31.6,-0.029003247,0.079196217,9.967002669,-0.000917265,-0.090809201,0.031108747,-0.074204947,6.160142349,6.25
18:31.6,-0.038796214,0.098108747,9.87862208,-0.014624111,0.075674334,-0.015554373,-0.070671378,6.167259786,6.254098361
18:31.6,-0.038228838,0.041371158,9.94785331,-0.001834529,-0.181618402,-0.04666312,-0.084805654,6.167259786,6.25
18:31.6,-0.048494618,0.107565012,9.908054299,0.014165478,-0.121078934,0,-0.067137809,6.170818505,6.25
18:31.6,-0.02947606,0.126477541,9.927294853,-0.028789589,0.196753268,0.108880614,-0.070671378,6.170818505,6.241803279
18:31.6,-0.01921028,0.060283688,9.947473999,0.106343589,-0.136213801,-0.062217494,-0.06360424,6.160142349,6.245901639
18:31.6,-0.028908684,0.069739953,9.937666488,-0.06109536,0.0454046,-0.062217494,-0.070671378,6.160142349,6.25
18:31.7,-0.029286935,0.107565012,9.956911885,0.076025225,-0.090809201,0.124434987,-0.067137809,6.163701068,6.245901639
18:31.7,-0.019493968,0.088652482,9.996242811,0.016000008,0.060539467,0.062217494,-0.067137809,6.167259786,6.241803279
18:31.7,-0.058287585,0.126477541,9.878533306,0.045248229,-0.090809201,0.077771867,-0.067137809,6.163701068,6.25
18:31.7,-0.009701001,0.069739953,9.996334007,0.199897597,-0.015134867,-0.015554373,-0.074204947,6.163701068,6.258196721
18:31.7,-0.067513175,0.088652482,9.928053475,0.046012617,-0.015134867,0.171098108,-0.06360424,6.167259786,6.245901639
18:31.7,-0.058003897,0.098108747,9.92786382,0.107719486,0,0.077771867,-0.067137809,6.160142349,6.254098361
18:31.7,0.028052427,0.135933806,9.887385276,0.014624111,-0.075674334,0.062217494,-0.081272085,6.170818505,6.254098361
18:31.7,-0.04821093,0.079196217,9.977004678,0.030012609,-0.075674334,0.015554373,-0.067137809,6.167259786,6.254098361
18:31.7,-0.029286935,0.107565012,9.907862222,0.138190727,-0.030269734,0.04666312,-0.06360424,6.167259786,6.25
18:31.7,-0.048305492,0.088652482,9.947481263,-0.015694253,-0.030269734,0.015554373,-0.070671378,6.163701068,6.254098361
18:31.8,-0.029286935,0.107565012,9.956911885,0.184509099,-0.015134867,-0.139989361,-0.074204947,6.170818505,6.25
18:31.8,-0.019493968,0.088652482,9.976622946,0.047235636,0.105944068,0.124434987,-0.070671378,6.160142349,6.25
18:31.8,-0.029286935,0.107565012,9.89805229,0.078471265,0.151348668,-0.093326241,-0.067137809,6.167259786,6.25
18:31.8,-0.019872218,0.126477541,9.897769017,0.046777004,0.060539467,0.311087468,-0.074204947,6.167259786,6.254098361
18:31.8,-0.096419263,0.098108747,9.947867838,0.215744727,0.030269734,0.015554373,-0.084805654,6.170818505,6.254098361
18:31.8,-0.067418613,0.079196217,9.967386822,0.152661961,-0.121078934,-0.093326241,-0.067137809,6.167259786,6.237704918
18:31.8,-0.000380847,0.098108747,9.868427994,-0.045095352,0.105944068,0.062217494,-0.067137809,6.167259786,6.258196721
18:31.8,-0.057909334,0.088652482,9.937767369,0.105579202,-0.211888135,0.217761228,-0.067137809,6.170818505,6.245901639
18:31.8,-0.038890776,0.107565012,9.947197991,0.077095368,0.015134867,0.155543734,-0.084805654,6.163701068,6.258196721
18:31.8,-0.010173814,0.117021277,9.937006326,0.201579249,0.151348668,0.139989361,-0.070671378,6.177935943,6.258196721
18:31.9,-0.057814771,0.079196217,9.908431189,0.00061151,0.060539467,0.202206855,-0.06360424,6.163701068,6.25
18:31.9,-0.038890776,0.107565012,9.976627789,0.122802229,-0.030269734,0.093326241,-0.074204947,6.163701068,6.241803279
18:31.9,-0.048494618,0.107565012,9.908054299,0.138496482,0,0.186652481,-0.074204947,6.160142349,6.25
18:31.9,-0.058193022,0.117021277,9.898246788,0.15388498,0,0.171098108,-0.067137809,6.167259786,6.254098361
18:31.9,-0.039174464,0.135933806,9.917487342,0.094165517,0.181618402,0.093326241,-0.077738516,6.163701068,6.25
18:31.9,-0.038985339,0.117021277,9.976534172,0.030929873,0.015134867,-0.155543734,-0.074204947,6.174377224,6.245901639
18:31.9,0.009128432,0.107565012,9.946717799,0.123566616,0.0454046,0.093326241,-0.06360424,6.167259786,6.254098361
18:31.9,-0.038796214,0.098108747,9.868812148,-0.030929873,-0.015134867,0.124434987,-0.067137809,6.163701068,6.254098361
18:31.9,-0.038890776,0.107565012,9.937388058,-0.107719486,0,0.217761228,-0.067137809,6.163701068,6.25
18:31.9,-0.019683093,0.107565012,9.878336386,0.170037865,0.075674334,0.015554373,-0.098939929,6.167259786,6.245901639
18:32.0,-0.00047541,0.107565012,9.937003905,0.214521708,-0.090809201,-0.015554373,-0.06360424,6.167259786,6.25
18:32.0,-0.000380847,0.098108747,9.917477657,0.032458648,0.166483535,0.015554373,-0.06360424,6.170818505,6.245901639
18:32.0,-0.038701651,0.088652482,9.947385225,0.063082767,0.151348668,-0.015554373,-0.06360424,6.163701068,6.25
18:32.0,-0.038417963,0.060283688,9.918236278,0.001528774,0.151348668,0.155543734,-0.09540636,6.170818505,6.25
18:32.0,-0.048116367,0.069739953,9.928048632,0.246215968,0,0.077771867,-0.067137809,6.163701068,6.245901639
18:32.0,-0.039079901,0.126477541,9.878341229,0.138802237,0.030269734,0.077771867,-0.070671378,6.167259786,6.258196721
18:32.0,-0.028908684,0.069739953,9.927856555,-0.014165478,0.121078934,0.264424348,-0.074204947,6.15658363,6.245901639
18:32.0,-0.038512526,0.069739953,9.918142661,0.045859739,-0.030269734,0,-0.077738516,6.163701068,6.258196721
18:32.0,-0.057720209,0.069739953,9.888904941,0.15388498,0,0.062217494,-0.070671378,6.160142349,6.254098361
18:32.0,0.018448585,0.135933806,9.916911112,0.138496482,0,-0.108880614,-0.070671378,6.170818505,6.241803279
18:32.0,-0.048305492,0.088652482,9.937671331,0.062318379,0.075674334,0.171098108,-0.060070671,6.163701068,6.254098361
18:32.1,-0.000380847,0.098108747,9.927287589,0.046012617,-0.015134867,0.217761228,-0.067137809,6.163701068,6.25
18:32.1,-0.029003247,0.079196217,9.927762938,0,0,0.155543734,-0.070671378,6.170818505,6.25
18:32.1,-0.048778306,0.135933806,9.966633043,0.060178095,-0.136213801,0.093326241,-0.070671378,6.163701068,6.25
18:32.1,-0.0669458,0.031914894,9.958044975,-0.028942467,0.181618402,0.108880614,-0.074204947,6.167259786,6.245901639
18:32.1,-0.029381497,0.117021277,9.897958673,0.046929881,0.075674334,0.093326241,-0.070671378,6.170818505,6.245901639
18:32.1,-0.057909334,0.088652482,9.977007099,0.139719502,0.121078934,0.062217494,-0.074204947,6.163701068,6.254098361
18:32.1,-0.019872218,0.126477541,9.966438545,0.123566616,0.0454046,0.077771867,-0.074204947,6.170818505,6.25
18:32.1,-0.038985339,0.117021277,9.898054711,-0.152050451,0.181618402,0.093326241,-0.088339223,6.170818505,6.262295082
18:32.1,-0.07721158,0.098108747,9.947675762,0.122955107,-0.015134867,0,-0.070671378,6.15658363,6.258196721
18:32.1,-0.019683093,0.107565012,9.917576116,0.031388506,0.060539467,0.031108747,-0.067137809,6.170818505,6.25
18:32.2,-0.048305492,0.088652482,9.986720994,0.077248245,0.030269734,0.031108747,-0.067137809,6.167259786,6.254098361
18:32.2,-0.058193022,0.117021277,9.917866653,-0.030776996,0,0.062217494,-0.084805654,6.167259786,6.262295082
18:32.2,-0.038607088,0.079196217,9.957288775,-0.076025225,0.090809201,-0.015554373,-0.074204947,6.167259786,6.25
18:32.2,-0.029759748,0.154846336,9.91720407,0.108942506,0.121078934,0,-0.074204947,6.170818505,6.254098361
18:32.2,-0.058193022,0.117021277,9.947296451,0.122802229,-0.030269734,0.077771867,-0.070671378,6.170818505,6.254098361
18:32.2,-0.058003897,0.098108747,9.937673752,0.246368846,0.015134867,0.139989361,-0.067137809,6.167259786,6.25
18:32.2,-0.057531083,0.050827423,9.977381568,0.045859739,-0.030269734,0.031108747,-0.074204947,6.160142349,6.258196721
18:32.2,-0.057909334,0.088652482,9.957387234,0.075566593,-0.136213801,0.186652481,-0.070671378,6.163701068,6.258196721
18:32.2,-0.039458152,0.1643026,9.927016424,0.183744712,-0.090809201,0.139989361,-0.070671378,6.167259786,6.262295082
18:32.2,-9.72E-05,0.069739953,9.947188305,0.107413731,-0.030269734,0.077771867,-0.067137809,6.160142349,6.254098361
18:32.3,-0.019493968,0.088652482,9.937383216,0.093248253,0.090809201,0.108880614,-0.070671378,6.170818505,6.262295082
18:32.3,-0.009984689,0.098108747,10.00586309,0.123566616,0.0454046,0.186652481,-0.070671378,6.167259786,6.254098361
18:32.3,-0.048967431,0.154846336,9.986065674,-0.029859731,0.090809201,0.015554373,-0.081272085,6.170818505,6.25
18:32.3,-0.068931615,0.230496454,9.897219422,-0.077248245,-0.030269734,0.264424348,-0.070671378,6.163701068,6.25
18:32.3,-0.010079252,0.107565012,9.937099943,0.047082759,0.090809201,0.108880614,-0.067137809,6.167259786,6.25
18:32.3,0.009128432,0.107565012,9.927097934,-0.015694253,-0.030269734,0.093326241,-0.067137809,6.167259786,6.254098361
18:32.3,-0.048305492,0.088652482,9.937671331,0.061401115,-0.015134867,0.155543734,-0.088339223,6.174377224,6.25
18:32.3,-0.000569973,0.117021277,9.927100355,0.049223043,0.302697336,0.124434987,-0.070671378,6.170818505,6.254098361
18:32.3,0.839881499,-0.374704492,9.992282626,-0.044789597,0.136213801,5.13294323,-0.067137809,6.167259786,6.254098361
18:32.3,0.766065306,-2.596926714,9.93676355,0.131005488,-0.741608473,-14.99441598,-0.067137809,6.163701068,6.258196721
18:32.4,-1.164378475,1.25177305,9.937200855,0.343539788,-1.029170942,-83.48032216,-0.088339223,6.174377224,6.254098361
18:32.4,-0.813669908,1.715130024,10.05658932,0.548023709,-0.590259805,-41.4368508,-0.067137809,6.170818505,6.25
18:32.4,0.082649471,0.438534279,9.972102693,0.026037795,-0.469180871,-14.29446918,-0.070671378,6.15658363,6.25
18:32.4,0.748340542,0.135933806,9.997901585,0.279744758,0.272427602,-22.02499277,-0.070671378,6.167259786,6.25
18:32.4,0.449959516,0.20212766,9.862884401,0.214827463,-0.060539467,-26.17801047,-0.070671378,6.163701068,6.25
18:32.4,-1.636343601,0.429078014,9.979577254,-1.089935813,-2.784815491,-9.425950294,-0.06360424,6.163701068,6.245901639
18:32.4,0.352638772,-0.630023641,10.24495656,-2.306850176,-2.905894425,1.788752944,-0.070671378,6.160142349,6.25
18:32.4,-0.272219852,0.391252955,11.23179557,-16.99099347,-3.253996362,-5.661791926,-0.077738516,6.177935943,6.245901639
18:32.4,-0.570222628,0.419621749,10.89114427,-34.04956576,-22.33906339,-15.22773158,-0.081272085,6.163701068,6.241803279
18:32.4,-0.328329899,0.239952719,10.69432338,-36.38735629,-38.972282,-13.87450109,-0.06360424,6.167259786,6.229508197
18:32.4,-0.00572937,-0.327423168,10.57905194,-38.24126554,-42.74086384,-3.717495248,-0.053003534,6.170818505,6.221311475
18:32.5,0.038359755,-0.894799054,10.72162387,-42.0261133,-30.48162173,-12.07019378,-0.056537102,6.170818505,6.225409836
18:32.5,0.297285226,-0.856973995,11.02276427,-33.67361246,-15.5889128,-22.14942775,-0.045936396,6.170818505,6.209016393
18:32.5,0.456673464,-0.469267139,10.61508608,-21.06436262,-7.370680131,-17.12536514,-0.035335689,6.163701068,6.200819672
18:32.5,0.502706856,-0.270685579,10.6616896,-13.17275931,-1.543756413,-11.74355193,-0.042402827,6.160142349,6.204918033
18:32.5,0.359783985,-0.384160757,10.55634432,-7.682678955,4.192358103,-9.285960934,-0.060070671,6.163701068,6.200819672
18:32.5,0.684517906,-0.204491726,10.4335811,-2.553618543,7.7036472,-1.959851051,-0.045936396,6.160142349,6.196721311
18:32.5,0.730645861,-0.01536643,10.34293917,-2.495476485,10.41278836,2.193166653,-0.042402827,6.160142349,6.192622951
18:32.5,0.644494975,-0.043735225,10.47161349,-7.524506419,13.75759392,2.768678469,-0.045936396,6.153024911,6.196721311
18:32.5,0.20470408,-0.242316785,10.47799722,-12.10971246,21.43097139,4.184126451,-0.035335689,6.160142349,6.192622951
18:32.5,-0.102240598,-0.280141844,10.2950562,-10.74788425,17.61698495,4.604094533,-0.045936396,6.153024911,6.18442623
18:32.6,-0.43544361,-0.573286052,10.29150974,-8.328485116,5.76638425,-2.31760164,-0.049469965,6.15658363,6.180327869
18:32.6,-0.11889509,-0.535460993,10.07214748,-5.228371638,-2.678871423,-4.355224558,-0.045936396,6.153024911,6.18852459
18:32.6,0.167139778,-0.327423168,9.821958444,-1.079849395,-6.356644055,-2.193166653,-0.056537102,6.15658363,6.18852459
18:32.6,0.416650533,-0.308510638,9.691745088,-1.931974006,-5.403147447,-1.77319857,-0.045936396,6.142348754,6.196721311
18:32.6,0.434912589,-0.213947991,9.670996976,-6.394839939,-2.376174087,-2.81534159,-0.042402827,6.149466192,6.18442623
18:32.6,0.207257272,-0.497635934,9.509341555,-8.646348481,0.196753268,-0.031108747,-0.045936396,6.149466192,6.18442623
18:32.6,0.1149068,-0.86643026,9.867110575,-6.83421991,7.446354465,5.381813204,-0.028268551,6.142348754,6.18442623
18:32.6,0.298472992,-0.01536643,9.474176905,1.245259294,18.16184016,4.075245837,-0.042402827,6.142348754,6.168032787
18:32.6,0.357892732,-0.195035461,9.681387982,7.352356218,22.5206818,6.937250547,-0.042402827,6.142348754,6.176229508
18:32.6,0.041344211,-0.23286052,10.01846942,6.511603649,35.26423964,7.341664256,-0.038869258,6.138790036,6.180327869
18:32.7,-0.314470739,-0.185579196,9.972505098,0.085736576,38.95714714,5.72400942,-0.049469965,6.138790036,6.18442623
18:32.7,-0.282160396,-0.535460993,9.897201352,-15.94588191,20.99206025,-4.106354584,-0.056537102,6.142348754,6.176229508
18:32.7,-0.354830372,-0.951536643,10.27486625,-21.46384157,6.402048656,-5.941770648,-0.049469965,6.145907473,6.172131148
18:32.7,-0.376969497,-0.658392435,10.33101579,-26.12264077,-3.8745259,-5.677346299,-0.06360424,6.135231317,6.168032787
18:32.7,0.006711351,-0.611111111,10.21879691,-28.86545898,0.33296707,-3.99747397,-0.049469965,6.135231317,6.155737705
18:32.7,0.350274706,-0.393617021,9.438201663,-38.22844102,2.709141157,-4.930736375,-0.042402827,6.128113879,6.151639344
18:32.7,0.44593487,-0.355791962,9.338767486,-49.03452993,2.376174087,-11.72799756,-0.053003534,6.131672598,6.147540984
18:32.7,0.515242139,-0.563829787,9.457873982,-57.78472384,4.479920572,-15.49215593,-0.067137809,6.135231317,6.135245902
18:32.7,0.401130793,-0.677304965,9.499389577,-61.00779592,8.369581339,-13.95227296,-0.053003534,6.135231317,6.12704918
18:32.7,0.017733632,-0.752955083,9.572649578,-63.96569872,9.565235816,-8.010502313,-0.042402827,6.128113879,6.118852459
18:32.8,-0.09552665,-0.951536643,9.977975231,-66.94836068,17.45050142,-1.586546089,-0.045936396,6.12455516,6.106557377
18:32.8,-0.276770325,-1.074468085,9.981016983,-66.80552452,28.54435878,5.863998781,-0.060070671,6.120996441,6.094262295
18:32.8,-0.303406909,-1.291962175,9.816689436,-69.07568061,33.84156216,8.026056686,-0.049469965,6.12455516,6.073770492
18:32.8,-0.100591485,-1.405437352,9.805986101,-75.18629022,33.70534836,10.46809331,-0.056537102,6.128113879,6.06557377
18:32.8,-0.49444355,-1.395981087,10.34937635,-90.95965357,33.69021349,2.162057906,-0.056537102,6.120996441,6.053278689
18:32.8,-0.674457911,-1.641843972,10.08876694,-106.7254322,23.76174087,-8.570459756,-0.060070671,6.113879004,6.036885246
18:32.8,-0.429728303,-2.105200946,9.727985712,-112.3612985,14.25704452,-15.46104718,-0.067137809,6.106761566,6.012295082
18:32.8,-0.341780726,-2.256501182,9.797288766,-116.9034522,15.52837333,-22.7093852,-0.070671378,6.103202847,6.008196721
18:32.8,-0.51379881,-2.341607565,9.544801765,-126.2673064,10.20090022,-29.25777641,-0.06360424,6.099644128,5.979508197
18:32.8,-0.19365691,-2.663120567,9.593865138,-136.4424703,5.297203379,-32.89749979,-0.06360424,6.099644128,5.950819672
18:32.9,-0.172936224,-2.814420804,9.683460327,-146.308895,2.012937284,-34.11074092,-0.067137809,6.088967972,5.922131148
18:32.9,0.021315547,-3.031914894,9.68369275,-154.2914013,-2.149151085,-33.8307622,-0.060070671,6.081850534,5.905737705
18:32.9,-0.023204842,-3.38179669,9.520867918,-159.8142946,-5.039910644,-31.87091114,-0.081272085,6.071174377,5.87295082
18:32.9,-0.117162879,-3.589834515,9.092250845,-164.0303887,-8.051749137,-30.3154738,-0.045936396,6.067615658,5.844262295
18:32.9,-0.277969557,-3.8356974,9.410235382,-161.3265438,-2.406443821,-25.04254121,-0.056537102,6.056939502,5.823770492
18:32.9,-0.430307144,-3.968085106,9.452322365,-157.9934486,7.643107733,-18.22972565,-0.042402827,6.046263345,5.790983607
18:32.9,-0.476624224,-4.138297872,9.346578406,-157.8579019,14.96838326,-16.09877649,-0.06360424,6.046263345,5.778688525
18:32.9,-0.281805077,-4.412529551,9.327752666,-162.9766569,27.71194111,-15.14995971,-0.042402827,6.03202847,5.737704918
18:32.9,-0.479703243,-4.790780142,9.1667453,-167.97073,32.99400962,-10.62363705,-0.049469965,6.017793594,5.721311475
18:32.9,-0.522521505,-5.310874704,9.015415507,-175.2554032,29.36164159,-11.57245383,-0.045936396,6.010676157,5.680327869
18:32.9,-0.202379604,-5.632387707,8.436643197,-176.2929611,21.09800432,-18.89856371,-0.049469965,5.989323843,5.663934426
18:33.0,0.00786472,-5.528368794,8.325591307,-178.6622374,10.48846269,-27.65567595,-0.038869258,5.975088968,5.635245902
18:33.0,-0.173000704,-5.689125296,7.622692382,-174.2789234,-6.507992723,-29.24222204,-0.053003534,5.964412811,5.602459016
18:33.0,-0.209241129,-5.906619385,7.25245229,-170.8233492,-19.3726295,-32.16644424,-0.038869258,5.953736655,5.581967213
18:33.0,0.970004016,-4.743498818,9.426453526,-187.5190982,-10.15549562,-32.81972792,-0.024734982,5.943060498,5.56147541
18:33.0,-0.680828005,-6.76713948,6.490788688,-203.4906288,-13.03112031,-34.31294777,-0.024734982,5.925266904,5.532786885
18:33.0,-0.333009331,-6.975177305,6.98969744,-208.0065988,-21.35529705,-31.91757426,-0.021201413,5.900355872,5.5
18:33.0,0.00303056,-6.96572104,6.966622613,-208.8659643,-27.2124905,-31.32650807,-0.024734982,5.882562278,5.463114754
18:33.0,0.130055441,-7.18321513,7.173535889,-208.5232897,-26.8038491,-27.71789344,0.003533569,5.854092527,5.43852459
18:33.0,0.312717555,-7.20212766,7.230757988,-218.522999,-11.29061063,-24.20260505,0.010600707,5.836298932,5.413934426
18:33.0,0.23659031,-8.23286052,6.93771868,-235.9474032,5.00964091,-15.91212401,0.017667845,5.814946619,5.389344262
18:33.1,0.217382627,-8.23286052,6.761331971,-241.9845935,-4.616134373,1.477665475,0.007067138,5.786476868,5.37295082
18:33.1,0.308829021,-8.734042553,5.637287083,-245.5637483,-10.07982129,8.58601413,0.021201413,5.765124555,5.340163934
18:33.1,0.287162709,-8.488179669,5.703714645,-253.8642082,-4.58586464,7.326109882,0.017667845,5.733096085,5.31557377
18:33.1,0.128814661,-8.979905437,4.827321453,-262.6949059,4.782617908,1.493219849,0.017667845,5.71886121,5.299180328
18:33.1,0.274763537,-9.169030733,4.356876455,-270.7082935,-2.436713554,-2.706460976,0.003533569,5.690391459,5.278688525
18:33.1,0.51708753,-8.43144208,3.297414545,-278.4679219,-7.385814997,-8.212709167,0.035335689,5.633451957,5.245901639
18:33.1,0.411634398,-8.45035461,3.220178741,-276.8161096,-14.48406753,-15.75658028,0.03180212,5.604982206,5.229508197
18:33.1,0.647611229,-8.998817967,2.772046709,-269.9627314,-23.08067187,-24.51369251,0.035335689,5.569395018,5.213114754
18:33.1,0.403112295,-9.51891253,2.505014532,-269.7104038,-27.04600697,-23.50265824,0.045936396,5.537366548,5.200819672
18:33.1,0.029886352,-9.651300236,2.431591208,-274.6873061,-23.1109416,-12.75458621,0.049469965,5.508896797,5.172131148
18:33.2,-1.070772919,-10.02955083,2.1128426,-265.3755796,-18.37372829,1.493219849,0.053003534,5.46975089,5.168032787
18:33.2,-1.409797266,-10.70094563,1.691309759,-225.5406127,-11.33601523,7.388327376,0.056537102,5.441281139,5.159836066
18:33.2,-0.930550816,-10.60638298,1.548232612,-187.6495408,-6.311239455,6.548391211,0.049469965,5.409252669,5.147540984
18:33.2,-0.370259863,-9.972813239,1.310665556,-158.0113387,1.301598545,7.574979857,0.060070671,5.377224199,5.155737705
18:33.2,0.559799764,-9.821513002,0.946694386,-131.5462804,2.512387888,10.15700585,0.053003534,5.352313167,5.143442623
18:33.2,0.390713122,-10.19976359,0.206612884,-118.5165032,2.088611618,10.96583326,0.045936396,5.338078292,5.151639344
18:33.2,0.678260992,-10.143026,0.507277938,-110.9519359,1.437812346,8.399361649,0.056537102,5.330960854,5.147540984
18:33.2,0.172188833,-10.43617021,-0.544202614,-105.4345531,-5.357742847,-9.021536585,0.06360424,5.320284698,5.139344262
18:33.2,0.443608039,-9.726950355,-0.406860016,-101.8809879,-13.09165978,-36.05503759,0.060070671,5.302491103,5.139344262
18:33.2,0.4429461,-9.660756501,-0.044547831,-106.7914997,-14.77162999,-50.16285429,0.06360424,5.291814947,5.155737705
18:33.3,0.591501182,-9.150118203,-0.335627809,-124.3661338,-16.39106074,-38.52818297,0.074204947,5.270462633,5.143442623
18:33.3,0.234267792,-8.960992908,-0.216227537,-123.1802049,-22.38446799,-16.20765711,0.091872792,5.256227758,5.155737705
18:33.3,0.276802366,-8.412529551,-0.124038191,-124.998598,-25.68386896,5.832890034,0.091872792,5.234875445,5.155737705
18:33.3,0.06684173,-8.544917258,-0.503202077,-122.9868846,-27.62113191,21.20061098,0.098939929,5.220640569,5.151639344
18:33.3,-0.103663352,-8.781323877,-0.489323028,-112.8994131,-20.73476751,30.87543125,0.084805654,5.206405694,5.151639344
18:33.3,-0.032979192,-8.166666667,-1.084772395,-100.6520658,-36.15719678,35.02844895,0.088339223,5.1886121,5.163934426
18:33.3,0.099530323,-8.932624113,-1.686653734,-102.5522899,-35.37018371,24.9336606,0.084805654,5.174377224,5.155737705
18:33.3,0.332386586,-9.169030733,-1.882816882,-101.1488269,-33.53886482,9.597048402,0.081272085,5.170818505,5.163934426
18:33.3,0.479753902,-9.5,-2.744254927,-100.7607026,-36.24800598,-3.764158368,0.074204947,5.149466192,5.172131148
18:33.3,0.800557741,-9.887706856,-2.635676639,-100.3896448,-34.5529009,-7.403881749,0.077738516,5.145907473,5.172131148
18:33.3,0.607251596,-9.764775414,-2.556493431,-95.92533691,-17.63211982,-13.96782733,0.084805654,5.120996441,5.168032787
18:33.4,-0.659982674,-9.812056738,-2.258860231,-88.90791071,3.723177232,-27.26681661,0.091872792,5.106761566,5.172131148
18:33.4,-1.110606725,-9.887706856,-2.037778973,-82.94756216,11.83546584,-39.38367351,0.09540636,5.099644128,5.176229508
18:33.4,-0.412363172,-9.604018913,-2.302656535,-82.29288561,15.70999174,-38.69928108,0.102473498,5.09252669,5.18852459
18:33.4,-0.272749994,-9.159574468,-1.965149472,-82.94047068,23.2017508,-29.70885324,0.106007067,5.081850534,5.18442623
18:33.4,-0.116671449,-8.440898345,-1.846367895,-81.83505959,6.19016052,-10.04812523,0.123674912,5.06405694,5.192622951
18:33.4,0.364466255,-8.535460993,-2.242630948,-91.50750721,-9.883068019,6.85947868,0.113074205,5.053380783,5.196721311
18:33.4,-0.907348571,-7.1643026,-1.586358902,-97.26015793,-12.66788351,16.44097271,0.116607774,5.042704626,5.200819672
18:33.4,0.210816256,-6.615839243,-1.612835117,-76.49676586,-42.7105941,49.30736375,0.098939929,5.035587189,5.204918033
18:33.4,0.495663358,-7.249408983,-2.472621955,-67.59522328,-29.83082246,65.01728091,0.098939929,5.021352313,5.204918033
18:33.4,0.251069861,-7.760047281,-3.210624512,-66.77886152,-20.61368858,72.35894516,0.088339223,5.014234875,5.213114754
18:33.5,0.242074943,-8.781323877,-4.132265389,-75.71952325,-14.51433726,57.90893225,0.074204947,5,5.213114754
18:33.5,0.837460105,-9.736406619,-4.452396188,-100.9774895,0.181618402,24.94921497,0.060070671,5.003558719,5.237704918
18:33.5,1.18962866,-10.37943262,-4.400437951,-118.5021499,47.68996528,-35.47952578,0.060070671,4.982206406,5.237704918
18:33.5,-0.10698451,-10.36997636,-4.91730274,-120.4569789,73.54031777,-76.09199479,0.077738516,4.960854093,5.237704918
18:33.5,-0.386630666,-10.25650118,-4.709632446,-121.3259757,66.72962771,-102.6588646,0.098939929,4.950177936,5.245901639
18:33.5,0.395494269,-9.71749409,-4.359876262,-116.4723899,56.68007616,-114.1535466,0.09540636,4.939501779,5.262295082
18:33.5,1.450645975,-8.630023641,-5.166097088,-81.83407973,21.52178059,-83.35588717,0.123674912,4.925266904,5.278688525
18:33.5,1.41218906,-7.665484634,-3.360520386,-43.47220814,-9.111189812,-28.83780833,0.148409894,4.914590747,5.282786885
18:33.5,0.334194742,-7.429078014,-3.361914441,-39.52863544,-22.41473773,-2.426482254,0.134275618,4.918149466,5.282786885
18:33.5,0.983662586,-7.069739953,-4.25489643,-29.63975528,-39.75929508,21.65168781,0.141342756,4.90747331,5.286885246
18:33.6,0.891501239,-7.457446809,-4.956412893,-33.63775934,-40.98521929,25.33807431,0.137809187,4.903914591,5.290983607
18:33.6,0.964969264,-8.081560284,-5.64741165,-47.50992917,-40.16793648,21.35615471,0.144876325,4.900355872,5.290983607
18:33.6,0.909710281,-8.317966903,-5.43848641,-53.3347727,-28.77138178,11.29247511,0.120141343,4.893238434,5.290983607
18:33.6,-0.719580073,-7.693853428,-4.84964862,-59.32430337,-16.92078108,9.690374643,0.127208481,4.889679715,5.299180328
18:33.6,-0.62747174,-8.261229314,-3.52055505,-69.85350706,-24.88172102,28.8533627,0.116607774,4.879003559,5.307377049
18:33.6,-0.234092488,-8.223404255,-3.93688426,-72.40924493,10.03441669,14.09226232,0.116607774,4.864768683,5.307377049
18:33.6,-0.245587583,-8.03427896,-4.644975706,-85.27945279,47.58402121,-8.477133516,0.098939929,4.864768683,5.323770492
18:33.6,0.14599498,-7.81678487,-5.337761752,-109.4313373,55.99900715,-23.9381807,0.130742049,4.854092527,5.323770492
18:33.6,0.827489478,-7.778959811,-5.982600563,-122.3200227,52.10934639,-31.29539933,0.134275618,4.839857651,5.352459016
18:33.6,2.359754242,-7.343971631,-6.03170289,-111.9547939,59.07138511,-33.33302225,0.144876325,4.832740214,5.37295082
18:33.7,0.967291782,-7.353427896,-7.27335507,-90.35511384,41.74196263,-24.700345,0.130742049,4.822064057,5.37295082
18:33.7,1.122087998,-7.466903073,-7.048139832,-59.60871075,15.8613404,-13.09678242,0.155477032,4.814946619,5.37704918
18:33.7,1.042231261,-7.1643026,-6.481391181,-47.99402566,-1.256193944,3.484179647,0.148409894,4.807829181,5.385245902
18:33.7,0.667492316,-7.145390071,-6.330683929,-55.84781961,-6.386913789,11.3546926,0.151943463,4.800711744,5.385245902
18:33.7,0.231442378,-6.757683215,-6.379250161,-59.87930033,-6.356644055,5.366258831,0.155477032,4.793594306,5.393442623
18:33.7,-0.162545798,-5.774231678,-6.218375941,-76.83116766,-19.44830384,-2.006514172,0.155477032,4.782918149,5.401639344
18:33.7,-0.048056201,-5.69858156,-6.239897203,-102.9796692,-57.87573064,-1.633209209,0.148409894,4.782918149,5.413934426
18:33.7,0.236128962,-6.265957447,-6.227255363,-122.4589262,-80.47208677,13.22121741,0.141342756,4.772241993,5.418032787
18:33.7,0.055074413,-6.407801418,-6.53794422,-148.8243294,-99.23932159,29.87995135,0.134275618,4.761565836,5.43852459
18:33.7,-0.207308328,-7.060283688,-7.087961725,-176.0983176,-119.5957174,41.63905765,0.116607774,4.740213523,5.467213115
18:33.7,0.048591139,-6.719858156,-7.643281199,-170.2917532,-112.9969155,53.52259895,0.098939929,4.733096085,5.475409836
18:33.8,2.324039644,-6.653664303,-7.519548634,-119.098664,-60.11569092,42.1367976,0.091872792,4.711743772,5.5
18:33.8,2.268443959,-7.81678487,-7.438691943,-59.25441393,21.99096146,0.668838057,0.070671378,4.704626335,5.516393443
18:33.8,-0.26015023,-6.578014184,-8.701084941,-29.13860556,32.70644715,-24.66923625,0.074204947,4.701067616,5.520491803
18:33.8,0.792815069,-7.192671395,-7.802954226,-22.73398496,31.48052294,-22.25830837,0.084805654,4.697508897,5.520491803
18:33.8,0.375216313,-6.729314421,-8.048660123,-22.25184094,38.07932486,-16.5031902,0.084805654,4.701067616,5.528688525
18:33.8,0.071161528,-6.095744681,-8.061765205,-26.53040278,39.54740694,-19.73849987,0.098939929,4.690391459,5.524590164
18:33.8,0.127271575,-5.944444444,-7.730301601,-25.59965403,38.76039387,-19.58295614,0.106007067,4.690391459,5.528688525
18:33.8,-0.194950704,-5.414893617,-7.281117988,-24.96766245,29.72487839,-13.15899992,0.113074205,4.697508897,5.532786885
18:33.8,-0.100992667,-5.206855792,-7.274328014,-26.22647921,7.173926862,-5.81733566,0.102473498,4.697508897,5.549180328
18:33.8,-0.15483321,-5.585106383,-7.495635552,-35.50454146,-20.12937284,3.173092178,0.109540636,4.68683274,5.536885246
18:33.9,0.106456327,-5.783687943,-7.849420204,-43.67722378,-38.54850573,11.57245383,0.113074205,4.68683274,5.545081967
18:33.9,0.332598642,-5.348699764,-8.218999013,-50.51863941,-45.52567933,19.03855307,0.091872792,4.676156584,5.553278689
18:33.9,-0.201339415,-5.736406619,-6.62057349,-58.63495858,-55.31793815,25.6336074,0.091872792,4.676156584,5.56557377
18:33.9,0.074524235,-5.471631206,-5.674416423,-79.51209496,-41.10629822,36.2261357,0.084805654,4.661921708,5.56147541
18:33.9,0.175060109,-4.960992908,-6.602661825,-98.34749133,-10.62467649,40.45692527,0.074204947,4.665480427,5.577868852
18:33.9,-0.013328778,-5.329787234,-8.088199741,-102.6311989,-8.142558337,38.37263923,0.070671378,4.658362989,5.590163934
18:33.9,-0.458751884,-5.925531915,-8.37208604,-118.5716849,5.76638425,32.04200925,0.067137809,4.644128114,5.606557377
18:33.9,-0.083108861,-5.074468085,-8.776750411,-129.567988,7.930670202,26.72241354,0.067137809,4.644128114,5.635245902
18:33.9,-0.986721029,-4.989361702,-6.237602753,-174.6500018,31.40484861,21.15394786,0.067137809,4.637010676,5.647540984
18:33.9,-0.606107734,-3.674940898,-7.461174799,-226.468078,18.72183023,1.322121741,0.053003534,4.619217082,5.68852459
18:34.0,-0.178190184,-3.249408983,-8.794050189,-250.3387655,-5.963137518,3.826375862,0.067137809,4.601423488,5.725409836
18:34.0,-0.055515185,-3.031914894,-9.287948507,-255.5742426,-38.291213,14.5122304,0.067137809,4.59430605,5.758196721
18:34.0,-0.308430195,-2.710401891,-9.082625904,-252.6240463,-55.48442168,29.13334142,0.053003534,4.580071174,5.803278689
18:34.0,-0.438859331,-2.15248227,-8.969181618,-244.5494175,-57.4368195,37.40826808,0.035335689,4.569395018,5.840163934
18:34.0,-0.439237582,-2.11465721,-9.244234197,-227.940892,-50.91369191,42.96117939,0.03180212,4.565836299,5.87704918
18:34.0,-0.412884686,-1.868794326,-9.717833118,-213.2433927,-43.14950524,45.20100917,0.028268551,4.551601423,5.901639344
18:34.0,-0.405928598,-1.604018913,-9.985418612,-197.927289,-25.94116169,49.01183066,0.014134276,4.544483986,5.954918033
18:34.0,-0.33520289,-1.953900709,-10.56141307,-174.6518643,-5.34260798,49.02738503,0.007067138,4.540925267,6
18:34.0,-0.569193905,-1.604018913,-10.93534942,-158.3977815,4.177223236,45.34099853,0.003533569,4.544483986,6.016393443
18:34.0,-0.801955605,-1.377068558,-10.88624164,-146.456915,8.687413542,36.08614634,0,4.537366548,6.032786885
18:34.1,-0.840654659,-1.348699764,-10.52317083,-140.5820666,20.52287938,22.25830837,0.007067138,4.533807829,6.057377049
18:34.1,-0.838426704,-0.611111111,-9.941973046,-145.6192442,30.678375,14.10781669,0.010600707,4.533807829,6.098360656
18:34.1,-0.630924696,-0.23286052,-9.55543327,-149.845376,28.19625684,11.32358385,0.007067138,4.53024911,6.110655738
18:34.1,-0.197238825,-0.384160757,-9.34243861,-156.0480109,28.09031278,2.177612279,0.014134276,4.533807829,6.131147541
18:34.1,-0.221269203,0.098108747,-9.180252148,-167.308778,22.35419826,-1.742089823,0.017667845,4.537366548,6.163934426
18:34.1,-0.428434509,0.646572104,-9.301384319,-173.1122917,6.916634127,2.115394786,0.017667845,4.53024911,6.213114754
18:34.1,-0.633141186,0.949172577,-9.214073864,-176.1213564,4.570729773,5.13294323,0.014134276,4.533807829,6.229508197
18:34.1,-1.020793665,1.299054374,-9.380465011,-173.570837,8.747953009,4.977399495,0.014134276,4.537366548,6.270491803
18:34.1,-1.092654125,1.762411348,-9.492289234,-168.0978894,-0.923226875,5.381813204,0.010600707,4.544483986,6.290983607
18:34.1,-0.948218252,1.724586288,-9.326586488,-160.9391873,-9.761989085,3.841930236,0.024734982,4.548042705,6.336065574
18:34.1,-1.171943487,2.008274232,-9.395855643,-159.0951178,-13.06139005,-1.197686754,0.014134276,4.548042705,6.340163934
18:34.2,-1.272142658,2.424349882,-9.232245555,-162.6194382,-10.04955155,-9.659265896,0.014134276,4.551601423,6.37295082
18:34.2,-0.97546376,2.528368794,-9.461880982,-165.6236524,0.272427602,-14.38779542,0.007067138,4.56227758,6.393442623
18:34.2,-0.485384154,2.5,-9.721556336,-162.4940787,2.36103922,-15.98989588,0.010600707,4.558718861,6.430327869
18:34.2,-0.092572277,2.594562648,-9.775479744,-153.7160611,3.011838493,-19.39630366,0.014134276,4.572953737,6.463114754
18:34.2,0.3076685,2.906619385,-9.82184245,-144.1288218,4.555594906,-19.55184739,0.007067138,4.580071174,6.483606557
18:34.2,0.438812589,3.237588652,-9.551785472,-141.4613687,-2.542657622,-14.15447982,0,4.597864769,6.512295082
18:34.2,0.197676361,3.341607565,-8.853909087,-143.1005999,-1.816184016,-10.51475643,0.010600707,4.59430605,6.524590164
18:34.2,-0.258526886,3.823877069,-8.687400896,-147.4431653,-5.160989578,-5.444030698,0.010600707,4.604982206,6.549180328
18:34.2,-0.492612463,4.18321513,-8.600364028,-155.1652901,-9.444156882,0.217761228,0,4.59430605,6.577868852
18:34.2,-0.937415179,4.485815603,-8.834380387,-161.6247416,-12.12302831,2.239829773,-0.028268551,4.612099644,6.602459016
18:34.3,-1.150874634,4.703309693,-9.030619384,-160.6408471,-13.74245905,4.293007065,0,4.633451957,6.62704918
18:34.3,-1.133652766,4.901891253,-9.160306542,-156.1119902,-11.7597915,3.593060261,-0.003533569,4.637010676,6.647540984
18:34.3,-0.915033914,5.128841608,-9.076472841,-152.0453477,-8.309041872,3.328635913,-0.003533569,4.651245552,6.68442623
18:34.3,-0.734830429,5.355791962,-8.540998089,-148.8869809,-1.846453749,2.31760164,-0.003533569,4.658362989,6.704918033
18:34.3,-0.35114958,5.403073286,-8.035191217,-153.8834479,4.722078441,-0.746609924,-0.007067138,4.672597865,6.725409836
18:34.3,0.141010404,5.166666667,-7.586491853,-161.7648501,12.09275857,-10.18811459,-0.010600707,4.679715302,6.737704918
18:34.3,0.234590191,5.412529551,-7.452547224,-165.3176509,19.90234984,-18.07418192,-0.010600707,4.693950178,6.770491803
18:34.3,-0.174161225,5.951536643,-7.875676881,-170.9555984,20.85584645,-19.14743368,-0.007067138,4.708185053,6.786885246
18:34.3,-0.812932024,6.443262411,-7.825156768,-177.1900387,8.46039054,-22.80271144,-0.007067138,4.715302491,6.803278689
18:34.3,-0.43549231,7.11465721,-7.188189564,-183.5031448,8.08201887,-19.76960862,-0.003533569,4.733096085,6.844262295
18:34.4,-0.823712166,7.521276596,-7.521911267,-196.0563303,17.60185009,-6.501728091,-0.010600707,4.761565836,6.87704918
18:34.4,-1.276038344,7.615839243,-7.694912417,-198.6754776,24.91199075,3.919702103,-0.007067138,4.772241993,6.905737705
18:34.4,-1.486755482,7.559101655,-7.260600838,-186.1273336,19.4634387,7.901621699,0,4.790035587,6.922131148
18:34.4,-1.429983497,7.644208038,-7.046201105,-171.6531814,14.25704452,1.944296678,0,4.807829181,6.942622951
18:34.4,-1.039346561,7.956264775,-6.81778966,-156.756813,9.716584484,-1.819861691,-0.017667845,4.822064057,6.963114754
18:34.4,-0.606890004,7.927895981,-6.380383573,-135.5031535,14.49920239,-1.959851051,0.003533569,4.84341637,6.967213115
18:34.4,-0.030754075,7.937352246,-5.895742867,-125.2993493,23.76174087,1.882079184,0.003533569,4.850533808,6.979508197
18:34.4,0.267910639,7.842789598,-5.564246181,-125.14454,32.99400962,9.488167788,0.007067138,4.868327402,7.008196721
18:34.4,0.082506208,8.135933806,-5.477034186,-130.2480664,36.58097305,14.96330723,0.021201413,4.886120996,7.020491803
18:34.4,-0.036238708,8.485815603,-5.646114408,-139.0512602,30.39081253,10.11034273,0.024734982,4.900355872,7.036885246
18:34.5,-0.115244381,8.703309693,-5.363011248,-145.0939506,24.79091182,2.302047267,0.017667845,4.911032028,7.036885246
18:34.5,-0.280400941,8.892434988,-5.049333093,-149.5086185,20.40180044,-2.519808495,0.024734982,4.932384342,7.057377049
18:34.5,-0.355624108,8.731678487,-4.782105118,-155.0399201,16.67862321,-7.015022414,0.038869258,4.946619217,7.06557377
18:34.5,-0.336983801,8.788416076,-4.625899976,-156.7744912,14.06029126,-8.010502313,0.028268551,4.971530249,7.081967213
18:34.5,-0.387083387,8.996453901,-4.55880983,-156.0545951,13.72732419,-5.304041337,0.024734982,4.989323843,7.102459016
18:34.5,-0.599029839,9.062647754,-4.518112574,-146.9548992,11.18466656,-4.215235198,0.035335689,5.007117438,7.118852459
18:34.5,-0.467034686,9.308510638,-4.19816338,-135.5905959,10.41278836,-2.939776577,0.024734982,5.021352313,7.12295082
18:34.5,-0.571731317,9.213947991,-3.990162204,-126.258033,9.59550555,-1.664317956,0.035335689,5.046263345,7.135245902
18:34.5,-0.703253656,8.920803783,-3.613138101,-113.2628025,10.32197916,-2.022068545,0.03180212,5.049822064,7.139344262
18:34.5,-0.473328835,8.977541371,-3.282467018,-99.63628925,8.03661427,0.155543734,0.028268551,5.067615658,7.143442623
18:34.5,-0.473612523,9.005910165,-3.223888274,-86.16243796,5.872328318,-3.048657191,0.03180212,5.081850534,7.147540984
18:34.6,-0.380316424,9.280141844,-3.119654293,-75.5224156,1.952397817,-8.570459756,0.038869258,5.088967972,7.155737705
18:34.6,-0.0180182,9.544917258,-2.929726379,-67.05211932,-0.438911137,-9.581494029,0.03180212,5.103202847,7.155737705
18:34.6,0.008240133,9.800236407,-2.824632895,-62.83465285,-1.861588616,-9.22374344,0.017667845,5.106761566,7.155737705
18:34.6,-0.070198164,9.960992908,-2.805836212,-62.60061495,-1.543756413,-10.51475643,0.024734982,5.120996441,7.163934426
18:34.6,-0.081976947,10.178487,-2.621504647,-62.89630759,-0.348101936,-9.581494029,0.042402827,5.128113879,7.172131148
18:34.6,-0.347196567,9.809692671,-2.58573471,-64.25803504,1.952397817,-10.5925283,0.035335689,5.138790036,7.18442623
18:34.6,-0.690476233,9.563829787,-2.462124093,-60.21325398,3.238861495,-16.28542897,0.03180212,5.149466192,7.180327869
18:34.6,-0.804871268,9.478723404,-2.479748944,-51.59075438,0.681069006,-17.14091951,0.024734982,5.153024911,7.18442623
18:34.6,-0.727756847,9.45035461,-2.225178154,-44.31622675,-2.784815491,-9.923690244,0.028268551,5.15658363,7.196721311
18:34.6,-0.376250231,8.873522459,-1.771668001,-34.75472302,-5.312338246,6.797261186,0.024734982,5.160142349,7.18852459
18:34.7,-0.131142372,8.372340426,-1.798537057,-28.98882759,-7.310140663,20.50066417,0.038869258,5.160142349,7.180327869
18:34.7,-0.150350055,8.372340426,-1.925874104,-22.24387762,-9.883068019,22.67827645,0.035335689,5.174377224,7.18442623
18:34.7,-0.247617785,8.495271868,-1.818221483,-19.91669824,-9.534966083,17.04759327,0.035335689,5.170818505,7.192622951
18:34.7,-0.772844613,9.157210402,-1.721489274,-30.86036288,-5.206394179,16.54985332,0.028268551,5.181494662,7.204918033
18:34.7,-0.874515239,8.760047281,-2.059848576,-44.01671218,-3.602098298,25.22919369,0.045936396,5.177935943,7.18442623
18:34.7,-0.352533623,11.30378251,-0.80540458,-50.24375179,-0.030269734,27.78011093,0.053003534,5.181494662,7.200819672
18:34.7,-0.342509983,10.30141844,-1.560655915,-27.70576243,6.977173594,12.49016186,0.053003534,5.195729537,7.192622951
18:34.7,-0.401604486,9.488179669,-1.905090154,-25.352236,11.45709417,-4.121908957,0.042402827,5.202846975,7.196721311
18:34.7,-0.615820442,9.781323877,-1.876449639,-37.71719817,13.71218932,-9.674820269,0.053003534,5.199288256,7.192622951
18:34.7,-0.606405725,9.800236407,-1.876732911,-46.39345851,12.47113024,-1.72653545,0.049469965,5.209964413,7.204918033
18:34.8,-0.616293255,9.828605201,-1.945587252,-47.8837489,11.18466656,5.366258831,0.053003534,5.209964413,7.196721311
18:34.8,-0.492199816,9.904255319,-1.653286711,-48.38173655,9.111189812,12.67681434,0.053003534,5.217081851,7.196721311
18:34.8,-0.343981437,9.488179669,-1.444599554,-49.58173364,9.141459546,18.41637813,0.06360424,5.227758007,7.209016393
18:34.8,0.125850298,9.563829787,-1.293095452,-53.47323774,12.36518617,19.28742304,0.06360424,5.234875445,7.200819672
18:34.8,0.382600828,9.819148936,-1.082397633,-58.48137908,11.68411717,18.99188995,0.067137809,5.241992883,7.204918033
18:34.8,0.266692791,9.88534279,-0.973991233,-60.62043243,10.15549562,20.64065353,0.067137809,5.252669039,7.221311475
18:34.8,0.206611113,10.13120567,-0.936609314,-60.04708319,10.54900216,17.0320389,0.074204947,5.24911032,7.204918033
18:34.8,0.118001598,10.34869976,-0.849608767,-63.91647568,9.867933152,13.39231552,0.084805654,5.263345196,7.204918033
18:34.8,0.108965132,10.29196217,-0.799901364,-70.74458747,8.778222743,10.42143019,0.084805654,5.277580071,7.204918033
18:34.8,0.034687591,10.03664303,-0.737745802,-75.37535448,7.370680131,7.123903028,0.077738516,5.284697509,7.217213115
18:34.9,-0.030175233,9.800236407,-0.764162905,-81.54706295,2.709141157,10.18811459,0.077738516,5.295373665,7.221311475
18:34.9,-0.166425705,9.979905437,-0.519348776,-84.86848385,-0.090809201,11.27692073,0.088339223,5.302491103,7.213114754
18:34.9,-0.332433328,10.25413712,-0.540050882,-87.10909296,-4.056144302,10.32810395,0.074204947,5.323843416,7.209016393
18:34.9,-0.292599522,10.11229314,-0.342832129,-87.24106783,-4.933966576,8.601568503,0.091872792,5.320284698,7.213114754
18:34.9,0.099550416,10.27304965,-0.093302947,-92.6411555,-3.284266095,8.492687889,0.091872792,5.338078292,7.213114754
18:34.9,0.447463652,10.05555556,0.140831243,-100.2077102,-2.830220091,11.41691009,0.091872792,5.352313167,7.221311475
18:34.9,0.566208569,9.705673759,0.143142611,-104.9086931,-3.571828564,14.8077635,0.077738516,5.362989324,7.221311475
18:34.9,0.423191135,9.601654846,0.381051356,-106.5947013,-2.905894425,13.5167505,0.106007067,5.37366548,7.213114754
18:34.9,0.15352707,9.677304965,0.363371631,-107.6567091,0.121078934,7.699414844,0.09540636,5.391459075,7.221311475
18:34.9,-0.05690638,9.592198582,0.52328595,-105.9414006,0.832417674,-0.622174937,0.102473498,5.409252669,7.221311475
18:34.9,-0.413950644,9.762411348,0.456484737,-105.9935805,-1.286463678,-4.852964508,0.098939929,5.423487544,7.213114754
18:35.0,-0.4247838,9.88534279,0.828141191,-113.5876531,-3.556693698,-2.784232843,0.106007067,5.434163701,7.225409836
18:35.0,0.010698762,9.554373522,1.033104642,-117.7761355,-14.49920239,8.72600349,0.106007067,5.455516014,7.217213115
18:35.0,0.202775593,9.554373522,1.521680501,-114.3740579,-18.94885323,18.41637813,0.109540636,5.466192171,7.209016393
18:35.0,0.401524823,9.84751773,1.889539004,-116.3417982,-18.75209996,22.4138521,0.109540636,5.473309609,7.213114754
18:35.0,0.74172547,9.440898345,2.312030292,-102.3283836,-23.86768494,29.87995135,0.116607774,5.494661922,7.204918033
18:35.0,0.661585045,9.771867612,2.594010047,-72.22792208,-25.33576702,37.2838331,0.120141343,5.498220641,7.209016393
18:35.0,0.419692317,9.951536643,2.408243566,-63.18828953,-10.97277843,24.77811686,0.116607774,5.523131673,7.200819672
18:35.0,0.278471573,9.6678487,2.069145013,-62.84183459,1.997802417,9.17708032,0.127208481,5.519572954,7.204918033
18:35.0,-0.251441839,9.838061466,1.994262559,-69.11223928,2.799950358,0.171098108,0.134275618,5.533807829,7.192622951
18:35.0,-0.83358823,9.469267139,0.993348913,-99.01565225,10.06468642,-33.20858726,0.130742049,5.537366548,7.18442623
18:35.1,-0.646859921,9.043735225,1.731481891,-119.1331062,11.1241271,-43.56779996,0.120141343,5.558718861,7.18852459
18:35.1,-0.574432085,8.523640662,1.647669165,-141.2985647,-0.136213801,-26.08468423,0.109540636,5.576512456,7.18442623
18:35.1,-0.028242432,8.646572104,2.651401007,-148.6048457,-7.431219598,-8.508242262,0.113074205,5.590747331,7.172131148
18:35.1,0.588578368,8.429078014,3.45182221,-149.094168,-5.599900715,-6.392847477,0.109540636,5.612099644,7.172131148
18:35.2,-0.065386935,7.559101655,4.771782657,-207.4628452,-8.657143808,-38.83927044,0.098939929,5.793594306,7.053278689
18:35.2,-0.21441483,7.095744681,5.356692526,-216.4461633,-11.3511501,-35.5261889,0.091872792,5.8113879,7.024590164
18:35.2,-0.046988767,6.679669031,6.026254436,-219.0394813,-10.62467649,-24.8714431,0.088339223,5.84341637,7
18:35.2,-0.176714416,6.206855792,6.679735373,-217.0892141,-4.933966576,-11.24581198,0.084805654,5.864768683,6.983606557
18:35.2,-0.722053006,5.998817967,6.873657856,-214.1049608,2.572927356,3.655277754,0.077738516,5.879003559,6.954918033
18:35.2,-0.77281453,6.273049645,7.028382076,-209.8095268,8.869031944,14.74554601,0.088339223,5.893238434,6.93442623
18:35.2,-0.689784212,6.613475177,7.053577315,-214.4058478,7.824726135,17.93419256,0.091872792,5.921708185,6.897540984
18:35.2,-0.517577002,6.679669031,7.325871416,-229.4731261,4.58586464,16.33209209,0.088339223,5.943060498,6.860655738
18:35.3,0.01271466,6.471631206,7.695426314,-243.0776806,2.951299026,10.56141955,0.088339223,5.96797153,6.831967213
18:35.3,0.410727482,6.046099291,8.117528605,-259.3993248,0.454046004,-3.297527166,0.088339223,5.985765125,6.803278689
18:35.3,0.166512236,5.497635934,8.488422896,-266.7641544,-8.066884003,-9.643711522,0.088339223,6,6.770491803
18:35.3,0.393736289,4.864066194,8.78678433,-267.3698164,-17.75319875,-11.83687818,0.088339223,6.014234875,6.725409836
18:35.3,0.502971926,4.504728132,9.073773398,-264.3324243,-20.22018204,-17.51422447,0.091872792,6.035587189,6.68852459
18:35.3,0.385497873,3.76713948,9.268712744,-261.9832792,-14.65055106,-22.46051522,0.091872792,6.046263345,6.655737705
18:35.3,-0.059452419,3.124113475,9.053964058,-262.0643424,-5.917732918,-21.54280719,0.09540636,6.053380783,6.614754098
18:35.3,-0.305086105,2.71749409,8.9133376,-261.3937145,1.059440676,-12.86346682,0.070671378,6.071174377,6.549180328
18:35.3,-0.383482854,1.913711584,9.147787841,-256.6621075,1.785914282,5.848444407,0.09540636,6.078291815,6.504098361
18:35.3,-0.557959567,2.074468085,9.030205853,-250.6896886,1.952397817,20.87396913,0.091872792,6.088967972,6.471311475
18:35.4,-0.306557559,1.904255319,9.068633691,-247.399201,0.166483535,29.58441825,0.09540636,6.09252669,6.43442623
18:35.4,-0.005812467,1.601654846,9.264850896,-251.6209481,1.165384743,30.90653999,0.081272085,6.103202847,6.397540984
18:35.4,-0.021426769,1.242316785,9.543278531,-258.6963981,-1.55889128,27.46902347,0.088339223,6.106761566,6.348360656
18:35.4,0.040546162,0.807328605,9.870736458,-267.1540056,2.088611618,27.01794664,0.091872792,6.110320285,6.31147541
18:35.4,0.1791607,0.391252955,10.23647857,-270.8729736,7.158791995,23.7048651,0.084805654,6.117437722,6.270491803
18:35.4,0.587912115,-0.147754137,11.76813061,-261.0643783,16.90564621,18.13639941,0.09540636,6.113879004,6.213114754
18:35.4,0.351829257,-1.509456265,13.69704531,-153.2305014,78.50455408,5.412921951,0.074204947,6.113879004,6.163934426
18:35.4,-0.5826218,-0.261229314,10.59396886,-128.6778663,53.39581006,10.73251766,0.06360424,6.113879004,6.147540984
18:35.4,-0.414722925,-0.724586288,10.47920425,-103.3164576,42.84680791,2.613134735,0.060070671,6.103202847,6.114754098
18:35.4,-0.191659628,-0.942080378,10.08675126,-90.35807413,35.35504884,4.666312027,0.056537102,6.106761566,6.114754098
18:35.5,-0.30737854,-0.894799054,9.410550286,-86.72338317,34.12912463,6.766152439,0.060070671,6.110320285,6.081967213
18:35.5,-0.499549933,-0.88534279,8.725682158,-98.7514349,28.60489825,7.574979857,0.049469965,6.117437722,6.077868852
18:35.5,-0.745656433,-1.244680851,8.329529369,-126.6531862,16.17917261,15.63214529,0.038869258,6.103202847,6.06147541
18:35.5,-0.783126172,-1.339243499,5.839126824,-171.9228572,-12.44086051,20.88952351,0.042402827,6.110320285,6.040983607
18:35.5,-0.480395264,-1.840425532,6.880964186,-265.3987477,-63.32428268,20.11180484,0.042402827,6.088967972,5.983606557
18:35.5,0.229668619,-2.738770686,9.708107575,-293.0587406,-41.15170282,24.20260505,0.053003534,6.088967972,5.946721311
18:35.5,-0.342684804,-3.126477541,10.37497366,-277.8687745,12.31978157,23.25378827,0.03180212,6.071174377,5.901639344
18:35.5,-0.772966421,-3.315602837,10.04763002,-261.4711919,34.52263117,21.44948095,0.035335689,6.06405694,5.852459016
18:35.5,-0.592154011,-4.109929078,10.30882341,-242.832361,30.28486846,20.29845732,0.035335689,6.053380783,5.81147541
18:35.5,-0.329540596,-4.440898345,10.73133406,-211.5904023,24.51848421,17.23424575,0.038869258,6.046263345,5.782786885
18:35.6,-0.095360456,-4.809692671,10.73268021,-183.021046,22.29365879,7.466099243,0.003533569,6.03202847,5.758196721
18:35.6,-0.21784633,-5.046099291,10.18691291,-162.7819641,18.04076122,-1.804307317,0.021201413,6.017793594,5.721311475
18:35.6,-0.342790833,-5.036643026,9.197264602,-155.9163036,12.18356777,-5.319595711,0.021201413,6.007117438,5.696721311
18:35.6,-0.507001765,-4.942080378,7.942289718,-163.0355287,3.602098298,-2.81534159,0.024734982,5.992882562,5.663934426
18:35.6,-0.128385751,-5.348699764,7.422643326,-181.1788806,-5.569630982,-0.653283684,0.010600707,5.989323843,5.643442623
18:35.6,-0.068020385,-5.622931442,7.395352191,-203.3336342,-11.19980143,-3.359744659,0.028268551,5.96797153,5.610655738
18:35.6,-0.075354723,-5.849881797,7.505604297,-228.1554379,-15.78566607,-8.383807275,0.028268551,5.953736655,5.586065574
18:35.6,-0.118740361,-6.313238771,7.569531318,-241.0297006,-16.72402781,-10.51475643,0.028268551,5.932384342,5.545081967
18:35.6,-0.246480195,-6.98463357,7.832580911,-245.6202087,-12.62247891,-13.65673987,0.024734982,5.918149466,5.516393443
18:35.6,-0.408516187,-7.107565012,7.972769641,-244.3598807,-12.77382758,-16.90760391,0.03180212,5.893238434,5.483606557
18:35.6,-0.495612699,-7.041371158,8.061268061,-235.3445591,-5.38801258,-18.29194315,0.035335689,5.871886121,5.454918033
18:35.7,-0.895096975,-7.429078014,8.059330039,-219.9956424,8.974976011,-14.46556728,0.021201413,5.84341637,5.418032787
18:35.7,-1.195516831,-8.119385343,8.088857176,-199.8658053,9.141459546,-5.77067254,0.03180212,5.8113879,5.397540984
18:35.7,-1.096736099,-8.393617021,7.639354788,-172.7891854,5.38801258,3.110874685,0.038869258,5.793594306,5.37704918
18:35.7,-0.972264409,-8.355791962,7.107995463,-152.9823053,2.527522755,9.114862826,0.038869258,5.793594306,5.368852459
18:35.7,-1.021512931,-8.23286052,6.47942295,-137.3836148,5.055045511,15.5699278,0.021201413,5.775800712,5.356557377
18:35.7,-0.944965887,-8.204491726,6.174265882,-125.7933726,8.369581339,21.4805897,0.028268551,5.761565836,5.327868852
18:35.7,-0.759277768,-8.526004728,5.528168582,-118.472676,9.474426616,25.77359676,0.024734982,5.747330961,5.323770492
18:35.7,-0.651649695,-8.724586288,4.960102029,-118.0749689,10.76089029,24.12483318,0.017667845,5.733096085,5.307377049
18:35.7,-0.671519317,-8.658392435,4.655530877,-119.6595291,6.235565121,20.57843604,0.014134276,5.722419929,5.299180328
18:35.7,0.134730559,-8.611111111,4.617565768,-119.0060304,2.376174087,17.09425639,0.017667845,5.697508897,5.282786885
18:35.8,-0.514022332,-8.081560284,5.099444483,-122.1625036,6.765285459,9.052645332,0.010600707,5.683274021,5.274590164
18:35.8,-0.825748157,-8.601654846,5.264721608,-108.3606434,17.26888302,9.519276535,0.010600707,5.676156584,5.262295082
18:35.8,-0.874860568,-9.452718676,4.65569762,-86.75025145,14.71109053,10.43698457,0.014134276,5.665480427,5.262295082
18:35.8,-0.615840535,-9.424349882,4.819592585,-62.49345136,4.495055439,3.266418419,0.010600707,5.647686833,5.254098361
18:35.8,-1.210522209,-9.5,4.953825026,-42.33946664,-2.088611618,-6.828369933,0.014134276,5.644128114,5.254098361
18:35.8,-1.702965881,-9.235224586,4.691233529,-19.63445532,-7.491759065,-7.139457401,0.010600707,5.647686833,5.233606557
18:35.8,-2.19214141,-8.336879433,5.02067954,2.107303471,-4.661538974,-8.197154794,0.003533569,5.637010676,5.241803279
18:35.8,-1.560084559,-8.157210402,5.66001783,70.87447419,-6.583667057,-43.87888743,0.014134276,5.640569395,5.25
18:35.8,-0.587123573,-9.414893617,4.642632066,105.7749206,-12.74355784,-34.74847023,0.028268551,5.661921708,5.25
18:35.8,-0.093113884,-8.875886525,4.44591318,104.2308313,-1.074575543,28.51116648,0.03180212,5.669039146,5.258196721
18:35.9,0.275289364,-8.261229314,4.102544869,52.16064306,5.463686914,45.5898685,0.017667845,5.676156584,5.270491803
18:35.9,0.036233515,-8.365248227,4.449323256,-5.398044638,7.945805069,13.56341363,0.007067138,5.683274021,5.266393443
18:35.9,-0.101204723,-9.027186761,4.015870058,-58.4700245,0.620529539,-20.23623982,0.021201413,5.669039146,5.270491803
18:35.9,0.186101008,-9.906619385,4.306279371,-93.57740784,-3.042108226,-30.67322439,0.021201413,5.669039146,5.266393443
18:35.9,-0.119898044,-10.03900709,4.261613576,-102.8388376,-2.799950358,-18.04307317,0.03180212,5.65480427,5.254098361
18:35.9,-0.344568906,-9.660756501,4.005019532,-99.36287508,-7.552298532,-10.43698457,0.03180212,5.644128114,5.241803279
18:35.9,-0.09609834,-9.537825059,4.099404838,-96.67895981,-9.97387722,-10.8880614,0.038869258,5.619217082,5.237704918
18:35.9,-0.066341189,-9.632387707,4.041193298,-96.39717553,-7.976074803,-21.65168781,0.021201413,5.619217082,5.233606557
18:35.9,0.047770158,-9.51891253,3.783859186,-95.69179929,-5.176124445,-35.57285202,0.049469965,5.601423488,5.233606557
18:35.9,0.249072579,-9.48108747,3.379260676,-97.48563119,-7.567433399,-46.41425029,0.053003534,5.587188612,5.225409836
18:36.0,0.319892851,-9.840425532,3.234996866,-91.10073178,-10.74575543,-44.70326922,0.053003534,5.572953737,5.217213115
18:36.0,0.259811173,-9.594562648,2.673972898,-74.98393639,-19.38776437,-40.53469714,0.038869258,5.56227758,5.204918033
18:36.0,0.148211469,-8.998817967,2.826090369,-67.42094999,-21.71853386,-40.03695719,0.074204947,5.551601423,5.204918033
18:36.0,-0.098651532,-9.28250591,2.900065406,-70.78201129,-20.82557671,-36.21058133,0.088339223,5.548042705,5.196721311
18:36.0,-0.519045618,-9.5,3.014353546,-80.36731178,-19.13047163,-32.88194542,0.091872792,5.540925267,5.196721311
18:36.0,-0.856693074,-9.348699764,3.202605737,-84.93463814,-18.8277743,-26.34910858,0.102473498,5.523131673,5.18852459
18:36.0,-0.711217012,-9.490543735,3.251619079,-83.36715163,-19.03966243,-16.25432023,0.098939929,5.519572954,5.200819672
18:36.0,-0.566875701,-9.51891253,3.054260703,-76.54184025,-15.1802714,-11.71244319,0.109540636,5.501779359,5.18852459
18:36.0,-0.224068847,-9.225768322,2.77322308,-65.36046516,-14.25704452,-7.683860471,0.113074205,5.505338078,5.192622951
18:36.0,0.085239897,-9.424349882,2.654396618,-56.87233086,-11.83546584,-1.67987233,0.116607774,5.487544484,5.172131148
18:36.0,-0.253542311,-9.159574468,2.488367832,-54.40690513,-5.418282314,1.462111102,0.120141343,5.491103203,5.18442623
18:36.1,-0.07494639,-8.771867612,2.355175681,-61.16612482,-5.781519117,2.162057906,0.113074205,5.473309609,5.172131148
18:36.1,0.154694743,-8.686761229,2.234309016,-67.35387843,-2.890759558,2.426482254,0.116607774,5.46975089,5.168032787
18:36.1,0.391197401,-8.327423168,2.140061215,-70.20462113,-0.227023002,4.028582717,0.120141343,5.451957295,5.163934426
18:36.1,0.341570628,-8.166666667,2.03104066,-66.46511187,2.830220091,4.604094533,0.106007067,5.444839858,5.159836066
18:36.1,0.379985994,-8.166666667,2.226855157,-54.98676899,4.20749297,2.924222204,0.109540636,5.434163701,5.168032787
18:36.1,0.942209749,-8.686761229,1.677077642,-21.5895971,9.186864146,-24.49813814,0.106007067,5.43772242,5.168032787
18:36.1,-0.192987819,-9.452718676,1.509700474,-23.49013048,5.372877713,-34.35961089,0.130742049,5.434163701,5.172131148
18:36.1,0.144281386,-9.566193853,1.595751927,-64.37390566,4.192358103,-10.8258439,0.123674912,5.419928826,5.159836066
18:36.1,0.303102248,-9.121749409,1.717248397,-77.93157893,5.675575049,-12.70792309,0.130742049,5.423487544,5.155737705
18:36.1,0.285407567,-9.273049645,1.532549627,-87.5054206,-0.635664406,-9.830364003,0.113074205,5.40569395,5.163934426
18:36.2,0.46168097,-9.613475177,1.141793846,-94.84339236,-3.45074963,-6.097314382,0.130742049,5.387900356,5.159836066
18:36.2,0.157762296,-9.953900709,1.776072972,-120.8910189,3.148052294,-5.599574432,0.134275618,5.377224199,5.151639344
18:36.2,-0.163325231,-9.537825059,1.333676126,-117.7317489,-8.581469474,-0.264424348,0.141342756,5.352313167,5.147540984
18:36.2,-0.150169557,-8.932624113,0.630987348,-111.1116372,-8.278772139,9.363732801,0.137809187,5.334519573,5.151639344
18:36.2,-0.278140065,-8.620567376,0.638956418,-114.6078803,-4.010739701,21.13839348,0.127208481,5.327402135,5.151639344
18:36.2,-0.199607205,-8.790780142,0.394624904,-124.8974313,1.089710409,34.74847023,0.134275618,5.316725979,5.151639344
18:36.2,-0.340260572,-9.131205674,0.144377446,-137.726338,7.688512333,52.40268406,0.120141343,5.298932384,5.139344262
18:36.2,-0.33695088,-9.462174941,-0.08778434,-150.2135847,20.68936291,68.48590618,0.109540636,5.284697509,5.139344262
18:36.2,-0.246828363,-9.830969267,-0.124237352,-169.3046408,28.90759558,77.39856215,0.102473498,5.266903915,5.147540984
18:36.2,-0.263010041,-10.13356974,-0.562496495,-180.4069296,32.76698662,73.43219693,0.084805654,5.224199288,5.143442623
18:36.3,-0.228755431,-9.71749409,-1.018256695,-189.3788826,32.72158202,66.0749783,0.060070671,5.202846975,5.143442623
18:36.3,-0.3266851,-9.528368794,-1.362516291,-200.9499143,29.78541786,46.38314155,0.067137809,5.185053381,5.159836066
18:36.3,-0.558595736,-9.386524823,-1.812872522,-204.445195,26.5314215,29.86439697,0.070671378,5.163701068,5.155737705
18:36.3,-0.639114412,-9.017730496,-2.100243323,-204.7147005,22.7023002,15.18106846,0.06360424,5.12455516,5.163934426
18:36.3,-0.478024046,-8.800236407,-2.339467549,-207.778801,14.9078438,2.597580362,0.049469965,5.113879004,5.163934426
18:36.3,-0.605332615,-8.554373522,-2.821339787,-217.0607233,3.980469968,-3.375299033,0.06360424,5.085409253,5.176229508
18:36.3,-0.556746032,-8.611111111,-3.125366186,-223.8566857,-1.543756413,0.684392431,0.067137809,5.049822064,5.18852459
18:36.3,-0.534323219,-8.932624113,-3.632491777,-228.8898955,-0.136213801,8.399361649,0.056537102,5.017793594,5.200819672
18:36.3,-0.954717305,-9.150118203,-4.096989658,-235.8302575,4.419381105,19.31853179,0.056537102,4.989323843,5.225409836
18:36.3,-0.821965652,-8.979905437,-4.443366942,-250.5423182,11.97167964,36.49056005,0.049469965,4.957295374,5.241803279
18:36.4,-0.576331965,-8.573286052,-4.528368933,-263.2327841,12.47113024,37.48603995,0.045936396,4.925266904,5.254098361
18:36.4,-0.41703829,-8.176122931,-4.995000331,-275.5072498,14.54460699,32.41531421,0.049469965,4.90747331,5.295081967
18:36.4,-0.305574698,-7.79787234,-5.186286192,-287.2941757,16.13376801,25.58694428,0.042402827,4.87544484,5.31147541
18:36.4,-0.213035101,-7.447990544,-5.740066629,-292.1403817,14.72622539,19.84738049,0.038869258,4.84341637,5.327868852
18:36.4,-0.140081437,-7.060283688,-6.078210941,-287.4960121,12.91004138,13.06567368,0.035335689,4.807829181,5.368852459
18:36.4,-0.345544615,-6.682033097,-6.776444027,-273.1208617,13.13706438,4.6818664,0.038869258,4.786476868,5.389344262
18:36.4,-0.548454602,-6.559101655,-6.942413095,-257.5774086,13.24300845,-1.119914886,0.038869258,4.75088968,5.43442623
18:36.4,-0.803166302,-6.057919622,-7.209745977,-249.5534795,12.36518617,-3.110874685,0.045936396,4.729537367,5.475409836
18:36.4,-0.959853771,-5.755319149,-7.68208187,-250.7795665,11.33601523,0.54440307,0.042402827,4.711743772,5.508196721
18:36.4,-0.75008226,-5.604018913,-7.77398198,-259.818122,6.220430254,7.668306098,0.03180212,4.690391459,5.532786885
18:36.5,-0.549820027,-5.462174941,-8.022651356,-272.906955,8.41498594,8.601568503,0.035335689,4.676156584,5.56147541
18:36.5,-0.562638999,-5.140661939,-8.11402769,-287.8539223,12.51653484,10.43698457,0.038869258,4.651245552,5.598360656
18:36.5,-0.41455673,-4.582742317,-8.199567169,-298.2234282,9.701449618,11.09026825,0.03180212,4.637010676,5.647540984
18:36.5,-0.038440894,-3.778959811,-8.329085343,-302.2609233,7.612837999,6.766152439,0.03180212,4.619217082,5.692622951
18:36.5,-0.156712997,-3.476359338,-8.654656401,-301.9309896,5.236663912,-0.699946804,0.038869258,4.59430605,5.75
18:36.5,-0.10202139,-3.18321513,-8.697374489,-297.2735211,7.764186667,-10.31254958,0.035335689,4.572953737,5.799180328
18:36.5,-0.193373222,-2.691489362,-8.81909742,-290.2048915,20.47747478,-14.65221976,0.038869258,4.572953737,5.852459016
18:36.5,-0.52368634,-2.313238771,-9.113874771,-284.9900703,27.90869438,-13.89005547,0.028268551,4.555160142,5.893442623
18:36.5,-0.663530192,-1.774231678,-9.402354448,-287.4093722,33.67507863,-14.48112166,0.042402827,4.551601423,5.93442623
18:36.5,-0.697164412,-1.291962175,-9.612849384,-288.3272341,28.12058251,-10.40587582,0.049469965,4.537366548,5.975409836
18:36.5,-0.585795382,-0.904255319,-9.52955075,-286.008675,16.95105081,-4.790747014,0.049469965,4.533807829,6.032786885
18:36.6,-0.638259034,-0.459810875,-9.641379816,-285.6893384,16.57267914,2.784232843,0.049469965,4.537366548,6.077868852
18:36.6,-0.443575998,0.239952719,-9.826903068,-286.019022,12.87977165,9.597048402,0.049469965,4.533807829,6.12295082
18:36.6,-0.3870877,0.353427896,-9.534304726,-279.0182318,2.118881352,6.937250547,0.049469965,4.53024911,6.200819672
18:36.6,-0.005865481,0.646572104,-9.354659672,-278.4738806,-3.40534503,-3.655277754,0.042402827,4.544483986,6.241803279
18:36.6,0.394186171,0.977541371,-9.234440758,-281.7730335,-5.524226381,-9.083754079,0.056537102,4.548042705,6.290983607
